"","rt.x","trial_type","trial_index","time_elapsed","internal_node_id","subject","browser_name","browser_type","completed","interaction","windowWidth","windowHeight","stimulus","trial_condition","whiteNonwhiteRatio","incomeRatio","nNonWhiteTrial","nWhiteTrial","nNonWhiteFemale","nWhiteFemale","trial_orgname","fairness","team_work","work_in_team","distrust","rt.y","s1_earn_reward","s2_inferior","s3_group_dominate","s4_bottom_deserve","s5_group_equality","s6_group_equal_unjust","s7_act_equalize","s8_succeed_equal","b1_just_world","b2_people_deserve","b3_confident_justice","b4_compensate_injustice","b5_injust_exeception","b6_fair_decision","ethnic","age","children","economic","edu","employment","gender","gender_description","income","ladder","marital","social","followup_response","attention_check","start_response"
"1",67595,"survey-html-form",3,180472,"0.0-3.0-0.0","04a172pstkh0j1f","Chrome",103,TRUE,"[{""event"":""blur"",""trial"":0,""time"":58402},{""event"":""blur"",""trial"":0,""time"":58403},{""event"":""focus"",""trial"":0,""time"":66487},{""event"":""focus"",""trial"":0,""time"":66487},{""event"":""blur"",""trial"":0,""time"":70235},{""event"":""blur"",""trial"":0,""time"":70235},{""event"":""focus"",""trial"":0,""time"":72601},{""event"":""focus"",""trial"":0,""time"":72601},{""event"":""blur"",""trial"":0,""time"":73087},{""event"":""blur"",""trial"":0,""time"":73088},{""event"":""focus"",""trial"":0,""time"":74449},{""event"":""focus"",""trial"":0,""time"":74449},{""event"":""blur"",""trial"":1,""time"":79645},{""event"":""blur"",""trial"":1,""time"":79645},{""event"":""focus"",""trial"":1,""time"":80295},{""event"":""focus"",""trial"":1,""time"":80295},{""event"":""blur"",""trial"":1,""time"":81112},{""event"":""blur"",""trial"":1,""time"":81112},{""event"":""focus"",""trial"":1,""time"":81269},{""event"":""focus"",""trial"":1,""time"":81270},{""event"":""blur"",""trial"":1,""time"":81845},{""event"":""blur"",""trial"":1,""time"":81845},{""event"":""focus"",""trial"":1,""time"":84387},{""event"":""focus"",""trial"":1,""time"":84387},{""event"":""blur"",""trial"":5,""time"":235298},{""event"":""blur"",""trial"":5,""time"":235298},{""event"":""focus"",""trial"":5,""time"":236299},{""event"":""focus"",""trial"":5,""time"":236299},{""event"":""blur"",""trial"":6,""time"":321329},{""event"":""blur"",""trial"":6,""time"":321329},{""event"":""focus"",""trial"":6,""time"":328250},{""event"":""focus"",""trial"":6,""time"":328250},{""event"":""blur"",""trial"":9,""time"":440236},{""event"":""blur"",""trial"":9,""time"":440236},{""event"":""focus"",""trial"":9,""time"":441194},{""event"":""focus"",""trial"":9,""time"":441194},{""event"":""blur"",""trial"":9,""time"":455242},{""event"":""blur"",""trial"":9,""time"":455242},{""event"":""focus"",""trial"":9,""time"":455395},{""event"":""focus"",""trial"":9,""time"":455395}]",1280,720,NA,1,1,5,2,23,1,9,"Econo Consulting Group","Y","Y","Y","Y",67338,"Slightly oppose","Slightly oppose","Slightly oppose","Slightly oppose","Slightly oppose","Slightly oppose","Slightly oppose","Slightly oppose","Somewhat favor","Somewhat favor","Somewhat favor","Somewhat favor","Somewhat favor","Somewhat favor","White","25","0","Slightly liberal","Four year college degree","Full-time","m","NULL","$30,000 to $39,999","7","Widowed","Slightly liberal","","1",1
"2",52000,"survey-html-form",4,232476,"0.0-3.0-0.1","04a172pstkh0j1f","Chrome",103,TRUE,"[{""event"":""blur"",""trial"":0,""time"":58402},{""event"":""blur"",""trial"":0,""time"":58403},{""event"":""focus"",""trial"":0,""time"":66487},{""event"":""focus"",""trial"":0,""time"":66487},{""event"":""blur"",""trial"":0,""time"":70235},{""event"":""blur"",""trial"":0,""time"":70235},{""event"":""focus"",""trial"":0,""time"":72601},{""event"":""focus"",""trial"":0,""time"":72601},{""event"":""blur"",""trial"":0,""time"":73087},{""event"":""blur"",""trial"":0,""time"":73088},{""event"":""focus"",""trial"":0,""time"":74449},{""event"":""focus"",""trial"":0,""time"":74449},{""event"":""blur"",""trial"":1,""time"":79645},{""event"":""blur"",""trial"":1,""time"":79645},{""event"":""focus"",""trial"":1,""time"":80295},{""event"":""focus"",""trial"":1,""time"":80295},{""event"":""blur"",""trial"":1,""time"":81112},{""event"":""blur"",""trial"":1,""time"":81112},{""event"":""focus"",""trial"":1,""time"":81269},{""event"":""focus"",""trial"":1,""time"":81270},{""event"":""blur"",""trial"":1,""time"":81845},{""event"":""blur"",""trial"":1,""time"":81845},{""event"":""focus"",""trial"":1,""time"":84387},{""event"":""focus"",""trial"":1,""time"":84387},{""event"":""blur"",""trial"":5,""time"":235298},{""event"":""blur"",""trial"":5,""time"":235298},{""event"":""focus"",""trial"":5,""time"":236299},{""event"":""focus"",""trial"":5,""time"":236299},{""event"":""blur"",""trial"":6,""time"":321329},{""event"":""blur"",""trial"":6,""time"":321329},{""event"":""focus"",""trial"":6,""time"":328250},{""event"":""focus"",""trial"":6,""time"":328250},{""event"":""blur"",""trial"":9,""time"":440236},{""event"":""blur"",""trial"":9,""time"":440236},{""event"":""focus"",""trial"":9,""time"":441194},{""event"":""focus"",""trial"":9,""time"":441194},{""event"":""blur"",""trial"":9,""time"":455242},{""event"":""blur"",""trial"":9,""time"":455242},{""event"":""focus"",""trial"":9,""time"":455395},{""event"":""focus"",""trial"":9,""time"":455395}]",1280,720,NA,4,4,1,8,17,8,2,"Advice Alliance","Y","Y","Y","Y",67338,"Slightly oppose","Slightly oppose","Slightly oppose","Slightly oppose","Slightly oppose","Slightly oppose","Slightly oppose","Slightly oppose","Somewhat favor","Somewhat favor","Somewhat favor","Somewhat favor","Somewhat favor","Somewhat favor","White","25","0","Slightly liberal","Four year college degree","Full-time","m","NULL","$30,000 to $39,999","7","Widowed","Slightly liberal","","1",1
"3",50205,"survey-html-form",5,282685,"0.0-3.0-0.2","04a172pstkh0j1f","Chrome",103,TRUE,"[{""event"":""blur"",""trial"":0,""time"":58402},{""event"":""blur"",""trial"":0,""time"":58403},{""event"":""focus"",""trial"":0,""time"":66487},{""event"":""focus"",""trial"":0,""time"":66487},{""event"":""blur"",""trial"":0,""time"":70235},{""event"":""blur"",""trial"":0,""time"":70235},{""event"":""focus"",""trial"":0,""time"":72601},{""event"":""focus"",""trial"":0,""time"":72601},{""event"":""blur"",""trial"":0,""time"":73087},{""event"":""blur"",""trial"":0,""time"":73088},{""event"":""focus"",""trial"":0,""time"":74449},{""event"":""focus"",""trial"":0,""time"":74449},{""event"":""blur"",""trial"":1,""time"":79645},{""event"":""blur"",""trial"":1,""time"":79645},{""event"":""focus"",""trial"":1,""time"":80295},{""event"":""focus"",""trial"":1,""time"":80295},{""event"":""blur"",""trial"":1,""time"":81112},{""event"":""blur"",""trial"":1,""time"":81112},{""event"":""focus"",""trial"":1,""time"":81269},{""event"":""focus"",""trial"":1,""time"":81270},{""event"":""blur"",""trial"":1,""time"":81845},{""event"":""blur"",""trial"":1,""time"":81845},{""event"":""focus"",""trial"":1,""time"":84387},{""event"":""focus"",""trial"":1,""time"":84387},{""event"":""blur"",""trial"":5,""time"":235298},{""event"":""blur"",""trial"":5,""time"":235298},{""event"":""focus"",""trial"":5,""time"":236299},{""event"":""focus"",""trial"":5,""time"":236299},{""event"":""blur"",""trial"":6,""time"":321329},{""event"":""blur"",""trial"":6,""time"":321329},{""event"":""focus"",""trial"":6,""time"":328250},{""event"":""focus"",""trial"":6,""time"":328250},{""event"":""blur"",""trial"":9,""time"":440236},{""event"":""blur"",""trial"":9,""time"":440236},{""event"":""focus"",""trial"":9,""time"":441194},{""event"":""focus"",""trial"":9,""time"":441194},{""event"":""blur"",""trial"":9,""time"":455242},{""event"":""blur"",""trial"":9,""time"":455242},{""event"":""focus"",""trial"":9,""time"":455395},{""event"":""focus"",""trial"":9,""time"":455395}]",1280,720,NA,3,3,4,6,19,1,9,"Square and Company","Y","Y","Y","Y",67338,"Slightly oppose","Slightly oppose","Slightly oppose","Slightly oppose","Slightly oppose","Slightly oppose","Slightly oppose","Slightly oppose","Somewhat favor","Somewhat favor","Somewhat favor","Somewhat favor","Somewhat favor","Somewhat favor","White","25","0","Slightly liberal","Four year college degree","Full-time","m","NULL","$30,000 to $39,999","7","Widowed","Slightly liberal","","1",1
"4",50822,"survey-html-form",6,333510,"0.0-3.0-0.3","04a172pstkh0j1f","Chrome",103,TRUE,"[{""event"":""blur"",""trial"":0,""time"":58402},{""event"":""blur"",""trial"":0,""time"":58403},{""event"":""focus"",""trial"":0,""time"":66487},{""event"":""focus"",""trial"":0,""time"":66487},{""event"":""blur"",""trial"":0,""time"":70235},{""event"":""blur"",""trial"":0,""time"":70235},{""event"":""focus"",""trial"":0,""time"":72601},{""event"":""focus"",""trial"":0,""time"":72601},{""event"":""blur"",""trial"":0,""time"":73087},{""event"":""blur"",""trial"":0,""time"":73088},{""event"":""focus"",""trial"":0,""time"":74449},{""event"":""focus"",""trial"":0,""time"":74449},{""event"":""blur"",""trial"":1,""time"":79645},{""event"":""blur"",""trial"":1,""time"":79645},{""event"":""focus"",""trial"":1,""time"":80295},{""event"":""focus"",""trial"":1,""time"":80295},{""event"":""blur"",""trial"":1,""time"":81112},{""event"":""blur"",""trial"":1,""time"":81112},{""event"":""focus"",""trial"":1,""time"":81269},{""event"":""focus"",""trial"":1,""time"":81270},{""event"":""blur"",""trial"":1,""time"":81845},{""event"":""blur"",""trial"":1,""time"":81845},{""event"":""focus"",""trial"":1,""time"":84387},{""event"":""focus"",""trial"":1,""time"":84387},{""event"":""blur"",""trial"":5,""time"":235298},{""event"":""blur"",""trial"":5,""time"":235298},{""event"":""focus"",""trial"":5,""time"":236299},{""event"":""focus"",""trial"":5,""time"":236299},{""event"":""blur"",""trial"":6,""time"":321329},{""event"":""blur"",""trial"":6,""time"":321329},{""event"":""focus"",""trial"":6,""time"":328250},{""event"":""focus"",""trial"":6,""time"":328250},{""event"":""blur"",""trial"":9,""time"":440236},{""event"":""blur"",""trial"":9,""time"":440236},{""event"":""focus"",""trial"":9,""time"":441194},{""event"":""focus"",""trial"":9,""time"":441194},{""event"":""blur"",""trial"":9,""time"":455242},{""event"":""blur"",""trial"":9,""time"":455242},{""event"":""focus"",""trial"":9,""time"":455395},{""event"":""focus"",""trial"":9,""time"":455395}]",1280,720,NA,2,2,1,4,21,1,9,"GrowthSense","Y","Y","Y","Y",67338,"Slightly oppose","Slightly oppose","Slightly oppose","Slightly oppose","Slightly oppose","Slightly oppose","Slightly oppose","Slightly oppose","Somewhat favor","Somewhat favor","Somewhat favor","Somewhat favor","Somewhat favor","Somewhat favor","White","25","0","Slightly liberal","Four year college degree","Full-time","m","NULL","$30,000 to $39,999","7","Widowed","Slightly liberal","","1",1
"5",34325,"survey-html-form",7,367838,"0.0-3.0-0.4","04a172pstkh0j1f","Chrome",103,TRUE,"[{""event"":""blur"",""trial"":0,""time"":58402},{""event"":""blur"",""trial"":0,""time"":58403},{""event"":""focus"",""trial"":0,""time"":66487},{""event"":""focus"",""trial"":0,""time"":66487},{""event"":""blur"",""trial"":0,""time"":70235},{""event"":""blur"",""trial"":0,""time"":70235},{""event"":""focus"",""trial"":0,""time"":72601},{""event"":""focus"",""trial"":0,""time"":72601},{""event"":""blur"",""trial"":0,""time"":73087},{""event"":""blur"",""trial"":0,""time"":73088},{""event"":""focus"",""trial"":0,""time"":74449},{""event"":""focus"",""trial"":0,""time"":74449},{""event"":""blur"",""trial"":1,""time"":79645},{""event"":""blur"",""trial"":1,""time"":79645},{""event"":""focus"",""trial"":1,""time"":80295},{""event"":""focus"",""trial"":1,""time"":80295},{""event"":""blur"",""trial"":1,""time"":81112},{""event"":""blur"",""trial"":1,""time"":81112},{""event"":""focus"",""trial"":1,""time"":81269},{""event"":""focus"",""trial"":1,""time"":81270},{""event"":""blur"",""trial"":1,""time"":81845},{""event"":""blur"",""trial"":1,""time"":81845},{""event"":""focus"",""trial"":1,""time"":84387},{""event"":""focus"",""trial"":1,""time"":84387},{""event"":""blur"",""trial"":5,""time"":235298},{""event"":""blur"",""trial"":5,""time"":235298},{""event"":""focus"",""trial"":5,""time"":236299},{""event"":""focus"",""trial"":5,""time"":236299},{""event"":""blur"",""trial"":6,""time"":321329},{""event"":""blur"",""trial"":6,""time"":321329},{""event"":""focus"",""trial"":6,""time"":328250},{""event"":""focus"",""trial"":6,""time"":328250},{""event"":""blur"",""trial"":9,""time"":440236},{""event"":""blur"",""trial"":9,""time"":440236},{""event"":""focus"",""trial"":9,""time"":441194},{""event"":""focus"",""trial"":9,""time"":441194},{""event"":""blur"",""trial"":9,""time"":455242},{""event"":""blur"",""trial"":9,""time"":455242},{""event"":""focus"",""trial"":9,""time"":455395},{""event"":""focus"",""trial"":9,""time"":455395}]",1280,720,NA,5,5,1,10,15,8,2,"Bloom Advising","Y","Y","Y","Y",67338,"Slightly oppose","Slightly oppose","Slightly oppose","Slightly oppose","Slightly oppose","Slightly oppose","Slightly oppose","Slightly oppose","Somewhat favor","Somewhat favor","Somewhat favor","Somewhat favor","Somewhat favor","Somewhat favor","White","25","0","Slightly liberal","Four year college degree","Full-time","m","NULL","$30,000 to $39,999","7","Widowed","Slightly liberal","","1",1
"6",43417,"survey-html-form",3,76803,"0.0-3.0-0.0","07h274znp2ba8xm","Chrome",103,TRUE,"[]",1536,864,NA,1,1,4,2,23,0,10,"Square and Company","Y","Y","Y","Y",182078,"Somewhat oppose","Slightly favor","Strongly oppose","Somewhat oppose","Somewhat favor","Slightly favor","Somewhat oppose","Somewhat oppose","Neutral","Somewhat favor","Neutral","Slightly favor","Slightly oppose","Slightly favor","White","26","0","Liberal","Two year college degree","Prefer not to answer","m","NULL","$40,000 to $49,999","4","Widowed","Moderate","","1",1
"7",87957,"survey-html-form",4,164765,"0.0-3.0-0.1","07h274znp2ba8xm","Chrome",103,TRUE,"[]",1536,864,NA,4,4,5,8,17,0,10,"Advice Alliance","Y","Y","Y","Y",182078,"Somewhat oppose","Slightly favor","Strongly oppose","Somewhat oppose","Somewhat favor","Slightly favor","Somewhat oppose","Somewhat oppose","Neutral","Somewhat favor","Neutral","Slightly favor","Slightly oppose","Slightly favor","White","26","0","Liberal","Two year college degree","Prefer not to answer","m","NULL","$40,000 to $49,999","4","Widowed","Moderate","","1",1
"8",86589,"survey-html-form",5,251358,"0.0-3.0-0.2","07h274znp2ba8xm","Chrome",103,TRUE,"[]",1536,864,NA,5,5,7,10,15,8,2,"GrowthSense","N","Y","Y","Y",182078,"Somewhat oppose","Slightly favor","Strongly oppose","Somewhat oppose","Somewhat favor","Slightly favor","Somewhat oppose","Somewhat oppose","Neutral","Somewhat favor","Neutral","Slightly favor","Slightly oppose","Slightly favor","White","26","0","Liberal","Two year college degree","Prefer not to answer","m","NULL","$40,000 to $49,999","4","Widowed","Moderate","","1",1
"9",134096,"survey-html-form",6,385458,"0.0-3.0-0.3","07h274znp2ba8xm","Chrome",103,TRUE,"[]",1536,864,NA,3,3,6,6,19,1,9,"Bloom Advising","Y","Y","Y","Y",182078,"Somewhat oppose","Slightly favor","Strongly oppose","Somewhat oppose","Somewhat favor","Slightly favor","Somewhat oppose","Somewhat oppose","Neutral","Somewhat favor","Neutral","Slightly favor","Slightly oppose","Slightly favor","White","26","0","Liberal","Two year college degree","Prefer not to answer","m","NULL","$40,000 to $49,999","4","Widowed","Moderate","","1",1
"10",72375,"survey-html-form",7,457836,"0.0-3.0-0.4","07h274znp2ba8xm","Chrome",103,TRUE,"[]",1536,864,NA,2,2,5,4,21,0,10,"Econo Consulting Group","Y","Y","Y","Y",182078,"Somewhat oppose","Slightly favor","Strongly oppose","Somewhat oppose","Somewhat favor","Slightly favor","Somewhat oppose","Somewhat oppose","Neutral","Somewhat favor","Neutral","Slightly favor","Slightly oppose","Slightly favor","White","26","0","Liberal","Two year college degree","Prefer not to answer","m","NULL","$40,000 to $49,999","4","Widowed","Moderate","","1",1
"11",52931,"survey-html-form",3,103301,"0.0-3.0-0.0","0d8ee6mzmp4fsyv","Chrome",103,TRUE,"[{""event"":""blur"",""trial"":0,""time"":12143},{""event"":""blur"",""trial"":0,""time"":12143},{""event"":""focus"",""trial"":0,""time"":29280},{""event"":""focus"",""trial"":0,""time"":29280}]",1920,1080,NA,4,4,3,8,17,0,10,"Advice Alliance","Y","Y","Y","Y",63630,"Slightly favor","Neutral","Slightly oppose","Slightly oppose","Neutral","Somewhat favor","Slightly oppose","Somewhat oppose","Somewhat oppose","Slightly oppose","Slightly oppose","Neutral","Neutral","Neutral","White","38","0","Moderate","Four year college degree","Full-time","m","NULL","$150,000 to $199,999","3","Widowed","Liberal","","1",1
"12",50440,"survey-html-form",4,153750,"0.0-3.0-0.1","0d8ee6mzmp4fsyv","Chrome",103,TRUE,"[{""event"":""blur"",""trial"":0,""time"":12143},{""event"":""blur"",""trial"":0,""time"":12143},{""event"":""focus"",""trial"":0,""time"":29280},{""event"":""focus"",""trial"":0,""time"":29280}]",1920,1080,NA,1,1,3,2,23,1,9,"GrowthSense","N","Y","Y","N",63630,"Slightly favor","Neutral","Slightly oppose","Slightly oppose","Neutral","Somewhat favor","Slightly oppose","Somewhat oppose","Somewhat oppose","Slightly oppose","Slightly oppose","Neutral","Neutral","Neutral","White","38","0","Moderate","Four year college degree","Full-time","m","NULL","$150,000 to $199,999","3","Widowed","Liberal","","1",1
"13",40557,"survey-html-form",5,194311,"0.0-3.0-0.2","0d8ee6mzmp4fsyv","Chrome",103,TRUE,"[{""event"":""blur"",""trial"":0,""time"":12143},{""event"":""blur"",""trial"":0,""time"":12143},{""event"":""focus"",""trial"":0,""time"":29280},{""event"":""focus"",""trial"":0,""time"":29280}]",1920,1080,NA,2,2,7,4,21,0,10,"Square and Company","N","N","N","N",63630,"Slightly favor","Neutral","Slightly oppose","Slightly oppose","Neutral","Somewhat favor","Slightly oppose","Somewhat oppose","Somewhat oppose","Slightly oppose","Slightly oppose","Neutral","Neutral","Neutral","White","38","0","Moderate","Four year college degree","Full-time","m","NULL","$150,000 to $199,999","3","Widowed","Liberal","","1",1
"14",51691,"survey-html-form",6,246009,"0.0-3.0-0.3","0d8ee6mzmp4fsyv","Chrome",103,TRUE,"[{""event"":""blur"",""trial"":0,""time"":12143},{""event"":""blur"",""trial"":0,""time"":12143},{""event"":""focus"",""trial"":0,""time"":29280},{""event"":""focus"",""trial"":0,""time"":29280}]",1920,1080,NA,3,3,1,6,19,0,10,"Econo Consulting Group","N","Y","Y","Y",63630,"Slightly favor","Neutral","Slightly oppose","Slightly oppose","Neutral","Somewhat favor","Slightly oppose","Somewhat oppose","Somewhat oppose","Slightly oppose","Slightly oppose","Neutral","Neutral","Neutral","White","38","0","Moderate","Four year college degree","Full-time","m","NULL","$150,000 to $199,999","3","Widowed","Liberal","","1",1
"15",100118,"survey-html-form",7,346135,"0.0-3.0-0.4","0d8ee6mzmp4fsyv","Chrome",103,TRUE,"[{""event"":""blur"",""trial"":0,""time"":12143},{""event"":""blur"",""trial"":0,""time"":12143},{""event"":""focus"",""trial"":0,""time"":29280},{""event"":""focus"",""trial"":0,""time"":29280}]",1920,1080,NA,5,5,6,10,15,1,9,"Bloom Advising","N","N","N","N",63630,"Slightly favor","Neutral","Slightly oppose","Slightly oppose","Neutral","Somewhat favor","Slightly oppose","Somewhat oppose","Somewhat oppose","Slightly oppose","Slightly oppose","Neutral","Neutral","Neutral","White","38","0","Moderate","Four year college degree","Full-time","m","NULL","$150,000 to $199,999","3","Widowed","Liberal","","1",1
"16",64568,"survey-html-form",3,80044,"0.0-3.0-0.0","0p9o4ku44vpaydr","Chrome",103,TRUE,"[{""event"":""blur"",""trial"":7,""time"":177857},{""event"":""blur"",""trial"":7,""time"":177858},{""event"":""focus"",""trial"":7,""time"":180505},{""event"":""focus"",""trial"":7,""time"":180505}]",1280,800,NA,5,5,7,10,15,4,6,"Econo Consulting Group","Y","Y","Y","Y",78488,"Somewhat oppose","Strongly favor","Strongly oppose","Slightly favor","Slightly oppose","Somewhat favor","Strongly oppose","Strongly oppose","Slightly oppose","Slightly favor","Slightly oppose","Neutral","Slightly favor","Neutral","White","27","0","Moderate","Graduate degree","Full-time","f","NULL","$20,000 to $29,999","4","Widowed","Moderate","","1",1
"17",32708,"survey-html-form",4,112760,"0.0-3.0-0.1","0p9o4ku44vpaydr","Chrome",103,TRUE,"[{""event"":""blur"",""trial"":7,""time"":177857},{""event"":""blur"",""trial"":7,""time"":177858},{""event"":""focus"",""trial"":7,""time"":180505},{""event"":""focus"",""trial"":7,""time"":180505}]",1280,800,NA,3,3,5,6,19,1,9,"Square and Company","Y","Y","Y","Y",78488,"Somewhat oppose","Strongly favor","Strongly oppose","Slightly favor","Slightly oppose","Somewhat favor","Strongly oppose","Strongly oppose","Slightly oppose","Slightly favor","Slightly oppose","Neutral","Slightly favor","Neutral","White","27","0","Moderate","Graduate degree","Full-time","f","NULL","$20,000 to $29,999","4","Widowed","Moderate","","1",1
"18",30853,"survey-html-form",5,143618,"0.0-3.0-0.2","0p9o4ku44vpaydr","Chrome",103,TRUE,"[{""event"":""blur"",""trial"":7,""time"":177857},{""event"":""blur"",""trial"":7,""time"":177858},{""event"":""focus"",""trial"":7,""time"":180505},{""event"":""focus"",""trial"":7,""time"":180505}]",1280,800,NA,4,4,6,8,17,4,6,"Advice Alliance","Y","Y","Y","Y",78488,"Somewhat oppose","Strongly favor","Strongly oppose","Slightly favor","Slightly oppose","Somewhat favor","Strongly oppose","Strongly oppose","Slightly oppose","Slightly favor","Slightly oppose","Neutral","Slightly favor","Neutral","White","27","0","Moderate","Graduate degree","Full-time","f","NULL","$20,000 to $29,999","4","Widowed","Moderate","","1",1
"19",30819,"survey-html-form",6,174442,"0.0-3.0-0.3","0p9o4ku44vpaydr","Chrome",103,TRUE,"[{""event"":""blur"",""trial"":7,""time"":177857},{""event"":""blur"",""trial"":7,""time"":177858},{""event"":""focus"",""trial"":7,""time"":180505},{""event"":""focus"",""trial"":7,""time"":180505}]",1280,800,NA,1,1,5,2,23,0,10,"Bloom Advising","Y","Y","Y","Y",78488,"Somewhat oppose","Strongly favor","Strongly oppose","Slightly favor","Slightly oppose","Somewhat favor","Strongly oppose","Strongly oppose","Slightly oppose","Slightly favor","Slightly oppose","Neutral","Slightly favor","Neutral","White","27","0","Moderate","Graduate degree","Full-time","f","NULL","$20,000 to $29,999","4","Widowed","Moderate","","1",1
"20",37904,"survey-html-form",7,212352,"0.0-3.0-0.4","0p9o4ku44vpaydr","Chrome",103,TRUE,"[{""event"":""blur"",""trial"":7,""time"":177857},{""event"":""blur"",""trial"":7,""time"":177858},{""event"":""focus"",""trial"":7,""time"":180505},{""event"":""focus"",""trial"":7,""time"":180505}]",1280,800,NA,2,2,4,4,21,3,7,"GrowthSense","Y","Y","Y","Y",78488,"Somewhat oppose","Strongly favor","Strongly oppose","Slightly favor","Slightly oppose","Somewhat favor","Strongly oppose","Strongly oppose","Slightly oppose","Slightly favor","Slightly oppose","Neutral","Slightly favor","Neutral","White","27","0","Moderate","Graduate degree","Full-time","f","NULL","$20,000 to $29,999","4","Widowed","Moderate","","1",1
"21",81954,"survey-html-form",3,103261,"0.0-3.0-0.0","0tna7m3vm1b462y","Chrome",103,TRUE,"[{""event"":""blur"",""trial"":9,""time"":313441},{""event"":""blur"",""trial"":9,""time"":313441},{""event"":""focus"",""trial"":9,""time"":316208},{""event"":""focus"",""trial"":9,""time"":316208}]",1920,1080,NA,3,3,6,6,19,4,6,"GrowthSense","Y","Y","Y","Y",70976,"Neutral","Strongly favor","Somewhat oppose","Strongly oppose","Neutral","Slightly favor","Strongly oppose","Strongly oppose","Neutral","Neutral","Slightly oppose","Slightly favor","Neutral","Slightly favor","White","53","2","Moderate","Two year college degree"," Part-time","f","NULL","$60,000 to $69,999","6","Divorced","Moderate","No. Thank you.","1",1
"22",37844,"survey-html-form",4,141109,"0.0-3.0-0.1","0tna7m3vm1b462y","Chrome",103,TRUE,"[{""event"":""blur"",""trial"":9,""time"":313441},{""event"":""blur"",""trial"":9,""time"":313441},{""event"":""focus"",""trial"":9,""time"":316208},{""event"":""focus"",""trial"":9,""time"":316208}]",1920,1080,NA,1,1,1,2,23,0,10,"Advice Alliance","Y","Y","Y","Y",70976,"Neutral","Strongly favor","Somewhat oppose","Strongly oppose","Neutral","Slightly favor","Strongly oppose","Strongly oppose","Neutral","Neutral","Slightly oppose","Slightly favor","Neutral","Slightly favor","White","53","2","Moderate","Two year college degree"," Part-time","f","NULL","$60,000 to $69,999","6","Divorced","Moderate","No. Thank you.","1",1
"23",33172,"survey-html-form",5,174284,"0.0-3.0-0.2","0tna7m3vm1b462y","Chrome",103,TRUE,"[{""event"":""blur"",""trial"":9,""time"":313441},{""event"":""blur"",""trial"":9,""time"":313441},{""event"":""focus"",""trial"":9,""time"":316208},{""event"":""focus"",""trial"":9,""time"":316208}]",1920,1080,NA,5,5,6,10,15,7,3,"Square and Company","Y","Y","Y","Y",70976,"Neutral","Strongly favor","Somewhat oppose","Strongly oppose","Neutral","Slightly favor","Strongly oppose","Strongly oppose","Neutral","Neutral","Slightly oppose","Slightly favor","Neutral","Slightly favor","White","53","2","Moderate","Two year college degree"," Part-time","f","NULL","$60,000 to $69,999","6","Divorced","Moderate","No. Thank you.","1",1
"24",35434,"survey-html-form",6,209720,"0.0-3.0-0.3","0tna7m3vm1b462y","Chrome",103,TRUE,"[{""event"":""blur"",""trial"":9,""time"":313441},{""event"":""blur"",""trial"":9,""time"":313441},{""event"":""focus"",""trial"":9,""time"":316208},{""event"":""focus"",""trial"":9,""time"":316208}]",1920,1080,NA,4,4,2,8,17,4,6,"Econo Consulting Group","Y","Y","Y","Y",70976,"Neutral","Strongly favor","Somewhat oppose","Strongly oppose","Neutral","Slightly favor","Strongly oppose","Strongly oppose","Neutral","Neutral","Slightly oppose","Slightly favor","Neutral","Slightly favor","White","53","2","Moderate","Two year college degree"," Part-time","f","NULL","$60,000 to $69,999","6","Divorced","Moderate","No. Thank you.","1",1
"25",32434,"survey-html-form",7,242158,"0.0-3.0-0.4","0tna7m3vm1b462y","Chrome",103,TRUE,"[{""event"":""blur"",""trial"":9,""time"":313441},{""event"":""blur"",""trial"":9,""time"":313441},{""event"":""focus"",""trial"":9,""time"":316208},{""event"":""focus"",""trial"":9,""time"":316208}]",1920,1080,NA,2,2,4,4,21,1,9,"Bloom Advising","Y","Y","Y","Y",70976,"Neutral","Strongly favor","Somewhat oppose","Strongly oppose","Neutral","Slightly favor","Strongly oppose","Strongly oppose","Neutral","Neutral","Slightly oppose","Slightly favor","Neutral","Slightly favor","White","53","2","Moderate","Two year college degree"," Part-time","f","NULL","$60,000 to $69,999","6","Divorced","Moderate","No. Thank you.","1",1
"26",30800,"survey-html-form",3,103942,"0.0-3.0-0.0","10taqmf75mzy32q","Chrome",103,TRUE,"[{""event"":""blur"",""trial"":1,""time"":9940},{""event"":""blur"",""trial"":1,""time"":9940},{""event"":""focus"",""trial"":1,""time"":12060},{""event"":""focus"",""trial"":1,""time"":12060},{""event"":""blur"",""trial"":6,""time"":231637},{""event"":""blur"",""trial"":6,""time"":231637},{""event"":""focus"",""trial"":6,""time"":242670},{""event"":""focus"",""trial"":6,""time"":242670},{""event"":""blur"",""trial"":6,""time"":290314},{""event"":""blur"",""trial"":6,""time"":290314},{""event"":""focus"",""trial"":6,""time"":340076},{""event"":""focus"",""trial"":6,""time"":340076},{""event"":""blur"",""trial"":6,""time"":378142},{""event"":""blur"",""trial"":6,""time"":378142},{""event"":""focus"",""trial"":6,""time"":379256},{""event"":""focus"",""trial"":6,""time"":379256},{""event"":""blur"",""trial"":8,""time"":516136},{""event"":""blur"",""trial"":8,""time"":516136},{""event"":""focus"",""trial"":8,""time"":548293},{""event"":""focus"",""trial"":8,""time"":548293},{""event"":""blur"",""trial"":8,""time"":556700},{""event"":""blur"",""trial"":8,""time"":556700},{""event"":""focus"",""trial"":8,""time"":565405},{""event"":""focus"",""trial"":8,""time"":565405}]",1536,864,NA,1,1,2,2,23,1,9,"GrowthSense","Y","Y","N","Y",137643,"Somewhat oppose","Strongly favor","Neutral","Strongly oppose","Somewhat favor","Strongly favor","Strongly oppose","Strongly oppose","Neutral","Slightly favor","Strongly favor","Strongly favor","Slightly favor","Strongly favor","Black-AfrAmr","23","0","Slightly conservative","Four year college degree","Full-time","m","NULL","$90,000 to $99,999","5","Widowed","Slightly conservative","","1",1
"27",66040,"survey-html-form",4,169985,"0.0-3.0-0.1","10taqmf75mzy32q","Chrome",103,TRUE,"[{""event"":""blur"",""trial"":1,""time"":9940},{""event"":""blur"",""trial"":1,""time"":9940},{""event"":""focus"",""trial"":1,""time"":12060},{""event"":""focus"",""trial"":1,""time"":12060},{""event"":""blur"",""trial"":6,""time"":231637},{""event"":""blur"",""trial"":6,""time"":231637},{""event"":""focus"",""trial"":6,""time"":242670},{""event"":""focus"",""trial"":6,""time"":242670},{""event"":""blur"",""trial"":6,""time"":290314},{""event"":""blur"",""trial"":6,""time"":290314},{""event"":""focus"",""trial"":6,""time"":340076},{""event"":""focus"",""trial"":6,""time"":340076},{""event"":""blur"",""trial"":6,""time"":378142},{""event"":""blur"",""trial"":6,""time"":378142},{""event"":""focus"",""trial"":6,""time"":379256},{""event"":""focus"",""trial"":6,""time"":379256},{""event"":""blur"",""trial"":8,""time"":516136},{""event"":""blur"",""trial"":8,""time"":516136},{""event"":""focus"",""trial"":8,""time"":548293},{""event"":""focus"",""trial"":8,""time"":548293},{""event"":""blur"",""trial"":8,""time"":556700},{""event"":""blur"",""trial"":8,""time"":556700},{""event"":""focus"",""trial"":8,""time"":565405},{""event"":""focus"",""trial"":8,""time"":565405}]",1536,864,NA,3,3,4,6,19,1,9,"Advice Alliance","Y","Y","N","Y",137643,"Somewhat oppose","Strongly favor","Neutral","Strongly oppose","Somewhat favor","Strongly favor","Strongly oppose","Strongly oppose","Neutral","Slightly favor","Strongly favor","Strongly favor","Slightly favor","Strongly favor","Black-AfrAmr","23","0","Slightly conservative","Four year college degree","Full-time","m","NULL","$90,000 to $99,999","5","Widowed","Slightly conservative","","1",1
"28",56494,"survey-html-form",5,226481,"0.0-3.0-0.2","10taqmf75mzy32q","Chrome",103,TRUE,"[{""event"":""blur"",""trial"":1,""time"":9940},{""event"":""blur"",""trial"":1,""time"":9940},{""event"":""focus"",""trial"":1,""time"":12060},{""event"":""focus"",""trial"":1,""time"":12060},{""event"":""blur"",""trial"":6,""time"":231637},{""event"":""blur"",""trial"":6,""time"":231637},{""event"":""focus"",""trial"":6,""time"":242670},{""event"":""focus"",""trial"":6,""time"":242670},{""event"":""blur"",""trial"":6,""time"":290314},{""event"":""blur"",""trial"":6,""time"":290314},{""event"":""focus"",""trial"":6,""time"":340076},{""event"":""focus"",""trial"":6,""time"":340076},{""event"":""blur"",""trial"":6,""time"":378142},{""event"":""blur"",""trial"":6,""time"":378142},{""event"":""focus"",""trial"":6,""time"":379256},{""event"":""focus"",""trial"":6,""time"":379256},{""event"":""blur"",""trial"":8,""time"":516136},{""event"":""blur"",""trial"":8,""time"":516136},{""event"":""focus"",""trial"":8,""time"":548293},{""event"":""focus"",""trial"":8,""time"":548293},{""event"":""blur"",""trial"":8,""time"":556700},{""event"":""blur"",""trial"":8,""time"":556700},{""event"":""focus"",""trial"":8,""time"":565405},{""event"":""focus"",""trial"":8,""time"":565405}]",1536,864,NA,5,5,2,10,15,1,9,"Bloom Advising","Y","Y","Y","Y",137643,"Somewhat oppose","Strongly favor","Neutral","Strongly oppose","Somewhat favor","Strongly favor","Strongly oppose","Strongly oppose","Neutral","Slightly favor","Strongly favor","Strongly favor","Slightly favor","Strongly favor","Black-AfrAmr","23","0","Slightly conservative","Four year college degree","Full-time","m","NULL","$90,000 to $99,999","5","Widowed","Slightly conservative","","1",1
"29",190644,"survey-html-form",6,417127,"0.0-3.0-0.3","10taqmf75mzy32q","Chrome",103,TRUE,"[{""event"":""blur"",""trial"":1,""time"":9940},{""event"":""blur"",""trial"":1,""time"":9940},{""event"":""focus"",""trial"":1,""time"":12060},{""event"":""focus"",""trial"":1,""time"":12060},{""event"":""blur"",""trial"":6,""time"":231637},{""event"":""blur"",""trial"":6,""time"":231637},{""event"":""focus"",""trial"":6,""time"":242670},{""event"":""focus"",""trial"":6,""time"":242670},{""event"":""blur"",""trial"":6,""time"":290314},{""event"":""blur"",""trial"":6,""time"":290314},{""event"":""focus"",""trial"":6,""time"":340076},{""event"":""focus"",""trial"":6,""time"":340076},{""event"":""blur"",""trial"":6,""time"":378142},{""event"":""blur"",""trial"":6,""time"":378142},{""event"":""focus"",""trial"":6,""time"":379256},{""event"":""focus"",""trial"":6,""time"":379256},{""event"":""blur"",""trial"":8,""time"":516136},{""event"":""blur"",""trial"":8,""time"":516136},{""event"":""focus"",""trial"":8,""time"":548293},{""event"":""focus"",""trial"":8,""time"":548293},{""event"":""blur"",""trial"":8,""time"":556700},{""event"":""blur"",""trial"":8,""time"":556700},{""event"":""focus"",""trial"":8,""time"":565405},{""event"":""focus"",""trial"":8,""time"":565405}]",1536,864,NA,4,4,6,8,17,5,5,"Square and Company","Y","Y","Y","Y",137643,"Somewhat oppose","Strongly favor","Neutral","Strongly oppose","Somewhat favor","Strongly favor","Strongly oppose","Strongly oppose","Neutral","Slightly favor","Strongly favor","Strongly favor","Slightly favor","Strongly favor","Black-AfrAmr","23","0","Slightly conservative","Four year college degree","Full-time","m","NULL","$90,000 to $99,999","5","Widowed","Slightly conservative","","1",1
"30",63235,"survey-html-form",7,480365,"0.0-3.0-0.4","10taqmf75mzy32q","Chrome",103,TRUE,"[{""event"":""blur"",""trial"":1,""time"":9940},{""event"":""blur"",""trial"":1,""time"":9940},{""event"":""focus"",""trial"":1,""time"":12060},{""event"":""focus"",""trial"":1,""time"":12060},{""event"":""blur"",""trial"":6,""time"":231637},{""event"":""blur"",""trial"":6,""time"":231637},{""event"":""focus"",""trial"":6,""time"":242670},{""event"":""focus"",""trial"":6,""time"":242670},{""event"":""blur"",""trial"":6,""time"":290314},{""event"":""blur"",""trial"":6,""time"":290314},{""event"":""focus"",""trial"":6,""time"":340076},{""event"":""focus"",""trial"":6,""time"":340076},{""event"":""blur"",""trial"":6,""time"":378142},{""event"":""blur"",""trial"":6,""time"":378142},{""event"":""focus"",""trial"":6,""time"":379256},{""event"":""focus"",""trial"":6,""time"":379256},{""event"":""blur"",""trial"":8,""time"":516136},{""event"":""blur"",""trial"":8,""time"":516136},{""event"":""focus"",""trial"":8,""time"":548293},{""event"":""focus"",""trial"":8,""time"":548293},{""event"":""blur"",""trial"":8,""time"":556700},{""event"":""blur"",""trial"":8,""time"":556700},{""event"":""focus"",""trial"":8,""time"":565405},{""event"":""focus"",""trial"":8,""time"":565405}]",1536,864,NA,2,2,5,4,21,1,9,"Econo Consulting Group","Y","Y","Y","Y",137643,"Somewhat oppose","Strongly favor","Neutral","Strongly oppose","Somewhat favor","Strongly favor","Strongly oppose","Strongly oppose","Neutral","Slightly favor","Strongly favor","Strongly favor","Slightly favor","Strongly favor","Black-AfrAmr","23","0","Slightly conservative","Four year college degree","Full-time","m","NULL","$90,000 to $99,999","5","Widowed","Slightly conservative","","1",1
"31",78479,"survey-html-form",3,99613,"0.0-3.0-0.0","1143j69pg0wkoaf","Chrome",103,TRUE,"[{""event"":""blur"",""trial"":1,""time"":7656},{""event"":""blur"",""trial"":1,""time"":7656},{""event"":""focus"",""trial"":1,""time"":9367},{""event"":""focus"",""trial"":1,""time"":9367},{""event"":""blur"",""trial"":2,""time"":16202},{""event"":""blur"",""trial"":2,""time"":16202},{""event"":""focus"",""trial"":2,""time"":17398},{""event"":""focus"",""trial"":2,""time"":17398},{""event"":""blur"",""trial"":2,""time"":17462},{""event"":""blur"",""trial"":2,""time"":17462},{""event"":""focus"",""trial"":2,""time"":19126},{""event"":""focus"",""trial"":2,""time"":19126},{""event"":""blur"",""trial"":5,""time"":173208},{""event"":""blur"",""trial"":5,""time"":173208},{""event"":""focus"",""trial"":5,""time"":186538},{""event"":""focus"",""trial"":5,""time"":186538}]",1536,864,NA,2,2,6,4,21,3,7,"GrowthSense","Y","Y","Y","Y",137592,"Strongly favor","Strongly favor","Strongly oppose","Strongly oppose","Strongly favor","Strongly favor","Strongly oppose","Strongly oppose","Somewhat oppose","Somewhat oppose","Somewhat oppose","Somewhat oppose","Somewhat oppose","Slightly oppose","Asian","25","0","Conservative","Four year college degree","Full-time","f","NULL","$70,000 to $79,999","4","Widowed","Conservative","","1",1
"32",50934,"survey-html-form",4,150550,"0.0-3.0-0.1","1143j69pg0wkoaf","Chrome",103,TRUE,"[{""event"":""blur"",""trial"":1,""time"":7656},{""event"":""blur"",""trial"":1,""time"":7656},{""event"":""focus"",""trial"":1,""time"":9367},{""event"":""focus"",""trial"":1,""time"":9367},{""event"":""blur"",""trial"":2,""time"":16202},{""event"":""blur"",""trial"":2,""time"":16202},{""event"":""focus"",""trial"":2,""time"":17398},{""event"":""focus"",""trial"":2,""time"":17398},{""event"":""blur"",""trial"":2,""time"":17462},{""event"":""blur"",""trial"":2,""time"":17462},{""event"":""focus"",""trial"":2,""time"":19126},{""event"":""focus"",""trial"":2,""time"":19126},{""event"":""blur"",""trial"":5,""time"":173208},{""event"":""blur"",""trial"":5,""time"":173208},{""event"":""focus"",""trial"":5,""time"":186538},{""event"":""focus"",""trial"":5,""time"":186538}]",1536,864,NA,3,3,3,6,19,5,5,"Square and Company","N","Y","Y","N",137592,"Strongly favor","Strongly favor","Strongly oppose","Strongly oppose","Strongly favor","Strongly favor","Strongly oppose","Strongly oppose","Somewhat oppose","Somewhat oppose","Somewhat oppose","Somewhat oppose","Somewhat oppose","Slightly oppose","Asian","25","0","Conservative","Four year college degree","Full-time","f","NULL","$70,000 to $79,999","4","Widowed","Conservative","","1",1
"33",37948,"survey-html-form",5,188500,"0.0-3.0-0.2","1143j69pg0wkoaf","Chrome",103,TRUE,"[{""event"":""blur"",""trial"":1,""time"":7656},{""event"":""blur"",""trial"":1,""time"":7656},{""event"":""focus"",""trial"":1,""time"":9367},{""event"":""focus"",""trial"":1,""time"":9367},{""event"":""blur"",""trial"":2,""time"":16202},{""event"":""blur"",""trial"":2,""time"":16202},{""event"":""focus"",""trial"":2,""time"":17398},{""event"":""focus"",""trial"":2,""time"":17398},{""event"":""blur"",""trial"":2,""time"":17462},{""event"":""blur"",""trial"":2,""time"":17462},{""event"":""focus"",""trial"":2,""time"":19126},{""event"":""focus"",""trial"":2,""time"":19126},{""event"":""blur"",""trial"":5,""time"":173208},{""event"":""blur"",""trial"":5,""time"":173208},{""event"":""focus"",""trial"":5,""time"":186538},{""event"":""focus"",""trial"":5,""time"":186538}]",1536,864,NA,1,1,2,2,23,2,8,"Bloom Advising","N","N","N","N",137592,"Strongly favor","Strongly favor","Strongly oppose","Strongly oppose","Strongly favor","Strongly favor","Strongly oppose","Strongly oppose","Somewhat oppose","Somewhat oppose","Somewhat oppose","Somewhat oppose","Somewhat oppose","Slightly oppose","Asian","25","0","Conservative","Four year college degree","Full-time","f","NULL","$70,000 to $79,999","4","Widowed","Conservative","","1",1
"34",34657,"survey-html-form",6,223160,"0.0-3.0-0.3","1143j69pg0wkoaf","Chrome",103,TRUE,"[{""event"":""blur"",""trial"":1,""time"":7656},{""event"":""blur"",""trial"":1,""time"":7656},{""event"":""focus"",""trial"":1,""time"":9367},{""event"":""focus"",""trial"":1,""time"":9367},{""event"":""blur"",""trial"":2,""time"":16202},{""event"":""blur"",""trial"":2,""time"":16202},{""event"":""focus"",""trial"":2,""time"":17398},{""event"":""focus"",""trial"":2,""time"":17398},{""event"":""blur"",""trial"":2,""time"":17462},{""event"":""blur"",""trial"":2,""time"":17462},{""event"":""focus"",""trial"":2,""time"":19126},{""event"":""focus"",""trial"":2,""time"":19126},{""event"":""blur"",""trial"":5,""time"":173208},{""event"":""blur"",""trial"":5,""time"":173208},{""event"":""focus"",""trial"":5,""time"":186538},{""event"":""focus"",""trial"":5,""time"":186538}]",1536,864,NA,5,5,2,10,15,7,3,"Advice Alliance","N","N","N","N",137592,"Strongly favor","Strongly favor","Strongly oppose","Strongly oppose","Strongly favor","Strongly favor","Strongly oppose","Strongly oppose","Somewhat oppose","Somewhat oppose","Somewhat oppose","Somewhat oppose","Somewhat oppose","Slightly oppose","Asian","25","0","Conservative","Four year college degree","Full-time","f","NULL","$70,000 to $79,999","4","Widowed","Conservative","","1",1
"35",58329,"survey-html-form",7,281494,"0.0-3.0-0.4","1143j69pg0wkoaf","Chrome",103,TRUE,"[{""event"":""blur"",""trial"":1,""time"":7656},{""event"":""blur"",""trial"":1,""time"":7656},{""event"":""focus"",""trial"":1,""time"":9367},{""event"":""focus"",""trial"":1,""time"":9367},{""event"":""blur"",""trial"":2,""time"":16202},{""event"":""blur"",""trial"":2,""time"":16202},{""event"":""focus"",""trial"":2,""time"":17398},{""event"":""focus"",""trial"":2,""time"":17398},{""event"":""blur"",""trial"":2,""time"":17462},{""event"":""blur"",""trial"":2,""time"":17462},{""event"":""focus"",""trial"":2,""time"":19126},{""event"":""focus"",""trial"":2,""time"":19126},{""event"":""blur"",""trial"":5,""time"":173208},{""event"":""blur"",""trial"":5,""time"":173208},{""event"":""focus"",""trial"":5,""time"":186538},{""event"":""focus"",""trial"":5,""time"":186538}]",1536,864,NA,4,4,5,8,17,1,9,"Econo Consulting Group","Y","Y","Y","Y",137592,"Strongly favor","Strongly favor","Strongly oppose","Strongly oppose","Strongly favor","Strongly favor","Strongly oppose","Strongly oppose","Somewhat oppose","Somewhat oppose","Somewhat oppose","Somewhat oppose","Somewhat oppose","Slightly oppose","Asian","25","0","Conservative","Four year college degree","Full-time","f","NULL","$70,000 to $79,999","4","Widowed","Conservative","","1",1
"36",94805,"survey-html-form",3,151094,"0.0-3.0-0.0","17oqt6wq6r3yv5a","Firefox",102,TRUE,"[{""event"":""blur"",""trial"":1,""time"":15685},{""event"":""blur"",""trial"":1,""time"":15685},{""event"":""focus"",""trial"":1,""time"":17324},{""event"":""focus"",""trial"":1,""time"":17324},{""event"":""blur"",""trial"":3,""time"":72999},{""event"":""blur"",""trial"":3,""time"":72999},{""event"":""focus"",""trial"":3,""time"":76348},{""event"":""focus"",""trial"":3,""time"":76349},{""event"":""blur"",""trial"":4,""time"":155761},{""event"":""blur"",""trial"":4,""time"":155761},{""event"":""focus"",""trial"":4,""time"":164333},{""event"":""focus"",""trial"":4,""time"":164333},{""event"":""blur"",""trial"":5,""time"":266215},{""event"":""blur"",""trial"":5,""time"":266215},{""event"":""focus"",""trial"":5,""time"":269956},{""event"":""focus"",""trial"":5,""time"":269956},{""event"":""blur"",""trial"":6,""time"":378165},{""event"":""blur"",""trial"":6,""time"":378165},{""event"":""focus"",""trial"":6,""time"":381555},{""event"":""focus"",""trial"":6,""time"":381555},{""event"":""blur"",""trial"":7,""time"":461000},{""event"":""blur"",""trial"":7,""time"":461000},{""event"":""focus"",""trial"":7,""time"":464556},{""event"":""focus"",""trial"":7,""time"":464556}]",1920,1080,NA,4,4,6,8,17,5,5,"Square and Company","Y","Y","Y","Y",99682,"Somewhat favor","Strongly favor","Strongly oppose","Strongly oppose","Strongly favor","Strongly favor","Strongly oppose","Strongly oppose","Slightly oppose","Slightly oppose","Somewhat oppose","Slightly oppose","Somewhat oppose","Slightly favor","White","25","0","Conservative","Some college but no degree","Prefer not to answer","f","NULL","$30,000 to $39,999","5","Widowed","Conservative","I have no additional comments!","1",1
"37",110055,"survey-html-form",4,261155,"0.0-3.0-0.1","17oqt6wq6r3yv5a","Firefox",102,TRUE,"[{""event"":""blur"",""trial"":1,""time"":15685},{""event"":""blur"",""trial"":1,""time"":15685},{""event"":""focus"",""trial"":1,""time"":17324},{""event"":""focus"",""trial"":1,""time"":17324},{""event"":""blur"",""trial"":3,""time"":72999},{""event"":""blur"",""trial"":3,""time"":72999},{""event"":""focus"",""trial"":3,""time"":76348},{""event"":""focus"",""trial"":3,""time"":76349},{""event"":""blur"",""trial"":4,""time"":155761},{""event"":""blur"",""trial"":4,""time"":155761},{""event"":""focus"",""trial"":4,""time"":164333},{""event"":""focus"",""trial"":4,""time"":164333},{""event"":""blur"",""trial"":5,""time"":266215},{""event"":""blur"",""trial"":5,""time"":266215},{""event"":""focus"",""trial"":5,""time"":269956},{""event"":""focus"",""trial"":5,""time"":269956},{""event"":""blur"",""trial"":6,""time"":378165},{""event"":""blur"",""trial"":6,""time"":378165},{""event"":""focus"",""trial"":6,""time"":381555},{""event"":""focus"",""trial"":6,""time"":381555},{""event"":""blur"",""trial"":7,""time"":461000},{""event"":""blur"",""trial"":7,""time"":461000},{""event"":""focus"",""trial"":7,""time"":464556},{""event"":""focus"",""trial"":7,""time"":464556}]",1920,1080,NA,5,5,5,10,15,7,3,"GrowthSense","Y","Y","Y","Y",99682,"Somewhat favor","Strongly favor","Strongly oppose","Strongly oppose","Strongly favor","Strongly favor","Strongly oppose","Strongly oppose","Slightly oppose","Slightly oppose","Somewhat oppose","Slightly oppose","Somewhat oppose","Slightly favor","White","25","0","Conservative","Some college but no degree","Prefer not to answer","f","NULL","$30,000 to $39,999","5","Widowed","Conservative","I have no additional comments!","1",1
"38",109545,"survey-html-form",5,370705,"0.0-3.0-0.2","17oqt6wq6r3yv5a","Firefox",102,TRUE,"[{""event"":""blur"",""trial"":1,""time"":15685},{""event"":""blur"",""trial"":1,""time"":15685},{""event"":""focus"",""trial"":1,""time"":17324},{""event"":""focus"",""trial"":1,""time"":17324},{""event"":""blur"",""trial"":3,""time"":72999},{""event"":""blur"",""trial"":3,""time"":72999},{""event"":""focus"",""trial"":3,""time"":76348},{""event"":""focus"",""trial"":3,""time"":76349},{""event"":""blur"",""trial"":4,""time"":155761},{""event"":""blur"",""trial"":4,""time"":155761},{""event"":""focus"",""trial"":4,""time"":164333},{""event"":""focus"",""trial"":4,""time"":164333},{""event"":""blur"",""trial"":5,""time"":266215},{""event"":""blur"",""trial"":5,""time"":266215},{""event"":""focus"",""trial"":5,""time"":269956},{""event"":""focus"",""trial"":5,""time"":269956},{""event"":""blur"",""trial"":6,""time"":378165},{""event"":""blur"",""trial"":6,""time"":378165},{""event"":""focus"",""trial"":6,""time"":381555},{""event"":""focus"",""trial"":6,""time"":381555},{""event"":""blur"",""trial"":7,""time"":461000},{""event"":""blur"",""trial"":7,""time"":461000},{""event"":""focus"",""trial"":7,""time"":464556},{""event"":""focus"",""trial"":7,""time"":464556}]",1920,1080,NA,1,1,6,2,23,1,9,"Advice Alliance","N","Y","N","N",99682,"Somewhat favor","Strongly favor","Strongly oppose","Strongly oppose","Strongly favor","Strongly favor","Strongly oppose","Strongly oppose","Slightly oppose","Slightly oppose","Somewhat oppose","Slightly oppose","Somewhat oppose","Slightly favor","White","25","0","Conservative","Some college but no degree","Prefer not to answer","f","NULL","$30,000 to $39,999","5","Widowed","Conservative","I have no additional comments!","1",1
"39",85724,"survey-html-form",6,456436,"0.0-3.0-0.3","17oqt6wq6r3yv5a","Firefox",102,TRUE,"[{""event"":""blur"",""trial"":1,""time"":15685},{""event"":""blur"",""trial"":1,""time"":15685},{""event"":""focus"",""trial"":1,""time"":17324},{""event"":""focus"",""trial"":1,""time"":17324},{""event"":""blur"",""trial"":3,""time"":72999},{""event"":""blur"",""trial"":3,""time"":72999},{""event"":""focus"",""trial"":3,""time"":76348},{""event"":""focus"",""trial"":3,""time"":76349},{""event"":""blur"",""trial"":4,""time"":155761},{""event"":""blur"",""trial"":4,""time"":155761},{""event"":""focus"",""trial"":4,""time"":164333},{""event"":""focus"",""trial"":4,""time"":164333},{""event"":""blur"",""trial"":5,""time"":266215},{""event"":""blur"",""trial"":5,""time"":266215},{""event"":""focus"",""trial"":5,""time"":269956},{""event"":""focus"",""trial"":5,""time"":269956},{""event"":""blur"",""trial"":6,""time"":378165},{""event"":""blur"",""trial"":6,""time"":378165},{""event"":""focus"",""trial"":6,""time"":381555},{""event"":""focus"",""trial"":6,""time"":381555},{""event"":""blur"",""trial"":7,""time"":461000},{""event"":""blur"",""trial"":7,""time"":461000},{""event"":""focus"",""trial"":7,""time"":464556},{""event"":""focus"",""trial"":7,""time"":464556}]",1920,1080,NA,2,2,4,4,21,3,7,"Econo Consulting Group","N","N","N","N",99682,"Somewhat favor","Strongly favor","Strongly oppose","Strongly oppose","Strongly favor","Strongly favor","Strongly oppose","Strongly oppose","Slightly oppose","Slightly oppose","Somewhat oppose","Slightly oppose","Somewhat oppose","Slightly favor","White","25","0","Conservative","Some college but no degree","Prefer not to answer","f","NULL","$30,000 to $39,999","5","Widowed","Conservative","I have no additional comments!","1",1
"40",83710,"survey-html-form",7,540151,"0.0-3.0-0.4","17oqt6wq6r3yv5a","Firefox",102,TRUE,"[{""event"":""blur"",""trial"":1,""time"":15685},{""event"":""blur"",""trial"":1,""time"":15685},{""event"":""focus"",""trial"":1,""time"":17324},{""event"":""focus"",""trial"":1,""time"":17324},{""event"":""blur"",""trial"":3,""time"":72999},{""event"":""blur"",""trial"":3,""time"":72999},{""event"":""focus"",""trial"":3,""time"":76348},{""event"":""focus"",""trial"":3,""time"":76349},{""event"":""blur"",""trial"":4,""time"":155761},{""event"":""blur"",""trial"":4,""time"":155761},{""event"":""focus"",""trial"":4,""time"":164333},{""event"":""focus"",""trial"":4,""time"":164333},{""event"":""blur"",""trial"":5,""time"":266215},{""event"":""blur"",""trial"":5,""time"":266215},{""event"":""focus"",""trial"":5,""time"":269956},{""event"":""focus"",""trial"":5,""time"":269956},{""event"":""blur"",""trial"":6,""time"":378165},{""event"":""blur"",""trial"":6,""time"":378165},{""event"":""focus"",""trial"":6,""time"":381555},{""event"":""focus"",""trial"":6,""time"":381555},{""event"":""blur"",""trial"":7,""time"":461000},{""event"":""blur"",""trial"":7,""time"":461000},{""event"":""focus"",""trial"":7,""time"":464556},{""event"":""focus"",""trial"":7,""time"":464556}]",1920,1080,NA,3,3,3,6,19,5,5,"Bloom Advising","Y","Y","Y","Y",99682,"Somewhat favor","Strongly favor","Strongly oppose","Strongly oppose","Strongly favor","Strongly favor","Strongly oppose","Strongly oppose","Slightly oppose","Slightly oppose","Somewhat oppose","Slightly oppose","Somewhat oppose","Slightly favor","White","25","0","Conservative","Some college but no degree","Prefer not to answer","f","NULL","$30,000 to $39,999","5","Widowed","Conservative","I have no additional comments!","1",1
"41",69226,"survey-html-form",3,121831,"0.0-3.0-0.0","1furcypd4cktos8","Chrome",103,TRUE,"[{""event"":""blur"",""trial"":1,""time"":12962},{""event"":""blur"",""trial"":1,""time"":12963},{""event"":""focus"",""trial"":1,""time"":17334},{""event"":""focus"",""trial"":1,""time"":17334}]",1920,1080,NA,5,5,4,10,15,7,3,"Advice Alliance","Y","Y","Y","Y",36685,"Somewhat oppose","Somewhat favor","Somewhat oppose","Slightly oppose","Slightly favor","Slightly favor","Slightly oppose","Strongly oppose","Somewhat favor","Somewhat favor","Somewhat favor","Slightly favor","Somewhat favor","Somewhat favor","White","39","2","Very liberal","Some college but no degree","Full-time","m","NULL","$20,000 to $29,999","4","Divorced","Slightly liberal","","1",1
"42",37716,"survey-html-form",4,159551,"0.0-3.0-0.1","1furcypd4cktos8","Chrome",103,TRUE,"[{""event"":""blur"",""trial"":1,""time"":12962},{""event"":""blur"",""trial"":1,""time"":12963},{""event"":""focus"",""trial"":1,""time"":17334},{""event"":""focus"",""trial"":1,""time"":17334}]",1920,1080,NA,1,1,6,2,23,1,9,"Bloom Advising","Y","Y","Y","Y",36685,"Somewhat oppose","Somewhat favor","Somewhat oppose","Slightly oppose","Slightly favor","Slightly favor","Slightly oppose","Strongly oppose","Somewhat favor","Somewhat favor","Somewhat favor","Slightly favor","Somewhat favor","Somewhat favor","White","39","2","Very liberal","Some college but no degree","Full-time","m","NULL","$20,000 to $29,999","4","Divorced","Slightly liberal","","1",1
"43",35429,"survey-html-form",5,194983,"0.0-3.0-0.2","1furcypd4cktos8","Chrome",103,TRUE,"[{""event"":""blur"",""trial"":1,""time"":12962},{""event"":""blur"",""trial"":1,""time"":12963},{""event"":""focus"",""trial"":1,""time"":17334},{""event"":""focus"",""trial"":1,""time"":17334}]",1920,1080,NA,2,2,7,4,21,2,8,"GrowthSense","Y","Y","Y","Y",36685,"Somewhat oppose","Somewhat favor","Somewhat oppose","Slightly oppose","Slightly favor","Slightly favor","Slightly oppose","Strongly oppose","Somewhat favor","Somewhat favor","Somewhat favor","Slightly favor","Somewhat favor","Somewhat favor","White","39","2","Very liberal","Some college but no degree","Full-time","m","NULL","$20,000 to $29,999","4","Divorced","Slightly liberal","","1",1
"44",64429,"survey-html-form",6,259415,"0.0-3.0-0.3","1furcypd4cktos8","Chrome",103,TRUE,"[{""event"":""blur"",""trial"":1,""time"":12962},{""event"":""blur"",""trial"":1,""time"":12963},{""event"":""focus"",""trial"":1,""time"":17334},{""event"":""focus"",""trial"":1,""time"":17334}]",1920,1080,NA,4,4,6,8,17,2,8,"Econo Consulting Group","Y","Y","Y","Y",36685,"Somewhat oppose","Somewhat favor","Somewhat oppose","Slightly oppose","Slightly favor","Slightly favor","Slightly oppose","Strongly oppose","Somewhat favor","Somewhat favor","Somewhat favor","Slightly favor","Somewhat favor","Somewhat favor","White","39","2","Very liberal","Some college but no degree","Full-time","m","NULL","$20,000 to $29,999","4","Divorced","Slightly liberal","","1",1
"45",66269,"survey-html-form",7,325686,"0.0-3.0-0.4","1furcypd4cktos8","Chrome",103,TRUE,"[{""event"":""blur"",""trial"":1,""time"":12962},{""event"":""blur"",""trial"":1,""time"":12963},{""event"":""focus"",""trial"":1,""time"":17334},{""event"":""focus"",""trial"":1,""time"":17334}]",1920,1080,NA,3,3,1,6,19,5,5,"Square and Company","N","N","N","N",36685,"Somewhat oppose","Somewhat favor","Somewhat oppose","Slightly oppose","Slightly favor","Slightly favor","Slightly oppose","Strongly oppose","Somewhat favor","Somewhat favor","Somewhat favor","Slightly favor","Somewhat favor","Somewhat favor","White","39","2","Very liberal","Some college but no degree","Full-time","m","NULL","$20,000 to $29,999","4","Divorced","Slightly liberal","","1",1
"46",55458,"survey-html-form",3,92903,"0.0-3.0-0.0","1ljoggutnz1f59n","Chrome",103,TRUE,"[]",1536,864,NA,5,5,5,10,15,7,3,"Econo Consulting Group","Y","Y","Y","Y",81747,"Slightly oppose","Strongly favor","Strongly oppose","Strongly oppose","Slightly favor","Somewhat favor","Strongly oppose","Strongly oppose","Slightly oppose","Neutral","Slightly oppose","Neutral","Neutral","Slightly favor","White","19","0","Liberal","High school or GED","Prefer not to answer","o","Nonbinary","$150,000 to $199,999","4","Widowed","Liberal","","1",1
"47",38767,"survey-html-form",4,131677,"0.0-3.0-0.1","1ljoggutnz1f59n","Chrome",103,TRUE,"[]",1536,864,NA,2,2,2,4,21,1,9,"Square and Company","N","Y","N","N",81747,"Slightly oppose","Strongly favor","Strongly oppose","Strongly oppose","Slightly favor","Somewhat favor","Strongly oppose","Strongly oppose","Slightly oppose","Neutral","Slightly oppose","Neutral","Neutral","Slightly favor","White","19","0","Liberal","High school or GED","Prefer not to answer","o","Nonbinary","$150,000 to $199,999","4","Widowed","Liberal","","1",1
"48",33090,"survey-html-form",5,164773,"0.0-3.0-0.2","1ljoggutnz1f59n","Chrome",103,TRUE,"[]",1536,864,NA,3,3,7,6,19,6,4,"GrowthSense","Y","Y","N","Y",81747,"Slightly oppose","Strongly favor","Strongly oppose","Strongly oppose","Slightly favor","Somewhat favor","Strongly oppose","Strongly oppose","Slightly oppose","Neutral","Slightly oppose","Neutral","Neutral","Slightly favor","White","19","0","Liberal","High school or GED","Prefer not to answer","o","Nonbinary","$150,000 to $199,999","4","Widowed","Liberal","","1",1
"49",58545,"survey-html-form",6,223327,"0.0-3.0-0.3","1ljoggutnz1f59n","Chrome",103,TRUE,"[]",1536,864,NA,4,4,5,8,17,6,4,"Bloom Advising","Y","Y","Y","Y",81747,"Slightly oppose","Strongly favor","Strongly oppose","Strongly oppose","Slightly favor","Somewhat favor","Strongly oppose","Strongly oppose","Slightly oppose","Neutral","Slightly oppose","Neutral","Neutral","Slightly favor","White","19","0","Liberal","High school or GED","Prefer not to answer","o","Nonbinary","$150,000 to $199,999","4","Widowed","Liberal","","1",1
"50",50880,"survey-html-form",7,274214,"0.0-3.0-0.4","1ljoggutnz1f59n","Chrome",103,TRUE,"[]",1536,864,NA,1,1,6,2,23,1,9,"Advice Alliance","N","Y","N","N",81747,"Slightly oppose","Strongly favor","Strongly oppose","Strongly oppose","Slightly favor","Somewhat favor","Strongly oppose","Strongly oppose","Slightly oppose","Neutral","Slightly oppose","Neutral","Neutral","Slightly favor","White","19","0","Liberal","High school or GED","Prefer not to answer","o","Nonbinary","$150,000 to $199,999","4","Widowed","Liberal","","1",1
"51",80680,"survey-html-form",3,93572,"0.0-3.0-0.0","2mf6dn9u1tjvu3w","Firefox",102,TRUE,"[{""event"":""blur"",""trial"":4,""time"":116270},{""event"":""blur"",""trial"":4,""time"":116270},{""event"":""focus"",""trial"":4,""time"":135412},{""event"":""focus"",""trial"":4,""time"":135412}]",1280,720,NA,1,1,6,2,23,2,8,"Bloom Advising","Y","Y","Y","Y",28581,"Slightly favor","Slightly favor","Neutral","Slightly favor","Slightly favor","Somewhat favor","Neutral","Slightly oppose","Neutral","Neutral","Slightly oppose","Neutral","Neutral","Neutral","Asian","28","0","Liberal","Graduate degree","Full-time","f","NULL","$100,000 to $124,999","1","Widowed","Liberal","none","1",1
"52",47175,"survey-html-form",4,140768,"0.0-3.0-0.1","2mf6dn9u1tjvu3w","Firefox",102,TRUE,"[{""event"":""blur"",""trial"":4,""time"":116270},{""event"":""blur"",""trial"":4,""time"":116270},{""event"":""focus"",""trial"":4,""time"":135412},{""event"":""focus"",""trial"":4,""time"":135412}]",1280,720,NA,2,2,4,4,21,4,6,"Econo Consulting Group","Y","Y","Y","Y",28581,"Slightly favor","Slightly favor","Neutral","Slightly favor","Slightly favor","Somewhat favor","Neutral","Slightly oppose","Neutral","Neutral","Slightly oppose","Neutral","Neutral","Neutral","Asian","28","0","Liberal","Graduate degree","Full-time","f","NULL","$100,000 to $124,999","1","Widowed","Liberal","none","1",1
"53",153687,"survey-html-form",5,294476,"0.0-3.0-0.2","2mf6dn9u1tjvu3w","Firefox",102,TRUE,"[{""event"":""blur"",""trial"":4,""time"":116270},{""event"":""blur"",""trial"":4,""time"":116270},{""event"":""focus"",""trial"":4,""time"":135412},{""event"":""focus"",""trial"":4,""time"":135412}]",1280,720,NA,5,5,5,10,15,9,1,"GrowthSense","Y","Y","Y","Y",28581,"Slightly favor","Slightly favor","Neutral","Slightly favor","Slightly favor","Somewhat favor","Neutral","Slightly oppose","Neutral","Neutral","Slightly oppose","Neutral","Neutral","Neutral","Asian","28","0","Liberal","Graduate degree","Full-time","f","NULL","$100,000 to $124,999","1","Widowed","Liberal","none","1",1
"54",45536,"survey-html-form",6,340033,"0.0-3.0-0.3","2mf6dn9u1tjvu3w","Firefox",102,TRUE,"[{""event"":""blur"",""trial"":4,""time"":116270},{""event"":""blur"",""trial"":4,""time"":116270},{""event"":""focus"",""trial"":4,""time"":135412},{""event"":""focus"",""trial"":4,""time"":135412}]",1280,720,NA,3,3,7,6,19,1,9,"Square and Company","N","Y","Y","N",28581,"Slightly favor","Slightly favor","Neutral","Slightly favor","Slightly favor","Somewhat favor","Neutral","Slightly oppose","Neutral","Neutral","Slightly oppose","Neutral","Neutral","Neutral","Asian","28","0","Liberal","Graduate degree","Full-time","f","NULL","$100,000 to $124,999","1","Widowed","Liberal","none","1",1
"55",37735,"survey-html-form",7,377787,"0.0-3.0-0.4","2mf6dn9u1tjvu3w","Firefox",102,TRUE,"[{""event"":""blur"",""trial"":4,""time"":116270},{""event"":""blur"",""trial"":4,""time"":116270},{""event"":""focus"",""trial"":4,""time"":135412},{""event"":""focus"",""trial"":4,""time"":135412}]",1280,720,NA,4,4,2,8,17,7,3,"Advice Alliance","Y","Y","N","Y",28581,"Slightly favor","Slightly favor","Neutral","Slightly favor","Slightly favor","Somewhat favor","Neutral","Slightly oppose","Neutral","Neutral","Slightly oppose","Neutral","Neutral","Neutral","Asian","28","0","Liberal","Graduate degree","Full-time","f","NULL","$100,000 to $124,999","1","Widowed","Liberal","none","1",1
"56",151429,"survey-html-form",3,228573,"0.0-3.0-0.0","3v7wr4d73s1qj8l","Chrome",103,TRUE,"[]",1280,720,NA,3,3,6,6,19,2,8,"GrowthSense","Y","Y","Y","Y",141505,"Somewhat favor","Strongly favor","Strongly oppose","Somewhat oppose","Somewhat favor","Strongly favor","Strongly oppose","Strongly oppose","Somewhat oppose","Somewhat oppose","Neutral","Slightly oppose","Neutral","Slightly favor","White","23","0","Slightly conservative","Two year college degree","Prefer not to answer","f","NULL","$150,000 to $199,999","3","Widowed","Moderate","","1",1
"57",63254,"survey-html-form",4,291833,"0.0-3.0-0.1","3v7wr4d73s1qj8l","Chrome",103,TRUE,"[]",1280,720,NA,2,2,7,4,21,2,8,"Advice Alliance","Y","Y","Y","Y",141505,"Somewhat favor","Strongly favor","Strongly oppose","Somewhat oppose","Somewhat favor","Strongly favor","Strongly oppose","Strongly oppose","Somewhat oppose","Somewhat oppose","Neutral","Slightly oppose","Neutral","Slightly favor","White","23","0","Slightly conservative","Two year college degree","Prefer not to answer","f","NULL","$150,000 to $199,999","3","Widowed","Moderate","","1",1
"58",46834,"survey-html-form",5,338670,"0.0-3.0-0.2","3v7wr4d73s1qj8l","Chrome",103,TRUE,"[]",1280,720,NA,1,1,7,2,23,0,10,"Econo Consulting Group","Y","Y","Y","Y",141505,"Somewhat favor","Strongly favor","Strongly oppose","Somewhat oppose","Somewhat favor","Strongly favor","Strongly oppose","Strongly oppose","Somewhat oppose","Somewhat oppose","Neutral","Slightly oppose","Neutral","Slightly favor","White","23","0","Slightly conservative","Two year college degree","Prefer not to answer","f","NULL","$150,000 to $199,999","3","Widowed","Moderate","","1",1
"59",139167,"survey-html-form",6,477843,"0.0-3.0-0.3","3v7wr4d73s1qj8l","Chrome",103,TRUE,"[]",1280,720,NA,4,4,6,8,17,6,4,"Bloom Advising","N","Y","N","N",141505,"Somewhat favor","Strongly favor","Strongly oppose","Somewhat oppose","Somewhat favor","Strongly favor","Strongly oppose","Strongly oppose","Somewhat oppose","Somewhat oppose","Neutral","Slightly oppose","Neutral","Slightly favor","White","23","0","Slightly conservative","Two year college degree","Prefer not to answer","f","NULL","$150,000 to $199,999","3","Widowed","Moderate","","1",1
"60",54332,"survey-html-form",7,532181,"0.0-3.0-0.4","3v7wr4d73s1qj8l","Chrome",103,TRUE,"[]",1280,720,NA,5,5,1,10,15,3,7,"Square and Company","N","Y","N","N",141505,"Somewhat favor","Strongly favor","Strongly oppose","Somewhat oppose","Somewhat favor","Strongly favor","Strongly oppose","Strongly oppose","Somewhat oppose","Somewhat oppose","Neutral","Slightly oppose","Neutral","Slightly favor","White","23","0","Slightly conservative","Two year college degree","Prefer not to answer","f","NULL","$150,000 to $199,999","3","Widowed","Moderate","","1",1
"61",125387,"survey-html-form",3,158584,"0.0-3.0-0.0","4lchh68sqr55tgs","Chrome",103,TRUE,"[]",1920,1080,NA,5,5,5,10,15,6,4,"Advice Alliance","Y","Y","Y","N",89102,"Somewhat oppose","Strongly favor","Strongly oppose","Strongly oppose","Strongly oppose","Strongly oppose","Neutral","Strongly oppose","Neutral","Somewhat favor","Neutral","Neutral","Slightly favor","Somewhat favor","White","44","3","Very liberal","Some college but no degree","Full-time","m","NULL","$70,000 to $79,999","6","Divorced","Very conservative","thanks","1",1
"62",62420,"survey-html-form",4,221007,"0.0-3.0-0.1","4lchh68sqr55tgs","Chrome",103,TRUE,"[]",1920,1080,NA,4,4,6,8,17,0,10,"Bloom Advising","Y","Y","N","N",89102,"Somewhat oppose","Strongly favor","Strongly oppose","Strongly oppose","Strongly oppose","Strongly oppose","Neutral","Strongly oppose","Neutral","Somewhat favor","Neutral","Neutral","Slightly favor","Somewhat favor","White","44","3","Very liberal","Some college but no degree","Full-time","m","NULL","$70,000 to $79,999","6","Divorced","Very conservative","thanks","1",1
"63",64661,"survey-html-form",5,285671,"0.0-3.0-0.2","4lchh68sqr55tgs","Chrome",103,TRUE,"[]",1920,1080,NA,3,3,7,6,19,2,8,"GrowthSense","Y","Y","N","N",89102,"Somewhat oppose","Strongly favor","Strongly oppose","Strongly oppose","Strongly oppose","Strongly oppose","Neutral","Strongly oppose","Neutral","Somewhat favor","Neutral","Neutral","Slightly favor","Somewhat favor","White","44","3","Very liberal","Some college but no degree","Full-time","m","NULL","$70,000 to $79,999","6","Divorced","Very conservative","thanks","1",1
"64",52405,"survey-html-form",6,338080,"0.0-3.0-0.3","4lchh68sqr55tgs","Chrome",103,TRUE,"[]",1920,1080,NA,1,1,2,2,23,2,8,"Econo Consulting Group","N","N","N","N",89102,"Somewhat oppose","Strongly favor","Strongly oppose","Strongly oppose","Strongly oppose","Strongly oppose","Neutral","Strongly oppose","Neutral","Somewhat favor","Neutral","Neutral","Slightly favor","Somewhat favor","White","44","3","Very liberal","Some college but no degree","Full-time","m","NULL","$70,000 to $79,999","6","Divorced","Very conservative","thanks","1",1
"65",32733,"survey-html-form",7,370815,"0.0-3.0-0.4","4lchh68sqr55tgs","Chrome",103,TRUE,"[]",1920,1080,NA,2,2,5,4,21,4,6,"Square and Company","Y","Y","N","N",89102,"Somewhat oppose","Strongly favor","Strongly oppose","Strongly oppose","Strongly oppose","Strongly oppose","Neutral","Strongly oppose","Neutral","Somewhat favor","Neutral","Neutral","Slightly favor","Somewhat favor","White","44","3","Very liberal","Some college but no degree","Full-time","m","NULL","$70,000 to $79,999","6","Divorced","Very conservative","thanks","1",1
"66",32315,"survey-html-form",3,38927,"0.0-3.0-0.0","55mn9jawp8jczg0","Chrome",97,TRUE,"[{""event"":""blur"",""trial"":5,""time"":253197},{""event"":""blur"",""trial"":5,""time"":253198},{""event"":""focus"",""trial"":5,""time"":488144},{""event"":""focus"",""trial"":5,""time"":488144},{""event"":""blur"",""trial"":6,""time"":491350},{""event"":""blur"",""trial"":6,""time"":491350},{""event"":""focus"",""trial"":6,""time"":687901},{""event"":""focus"",""trial"":6,""time"":687902},{""event"":""blur"",""trial"":7,""time"":695183},{""event"":""blur"",""trial"":7,""time"":695184},{""event"":""focus"",""trial"":7,""time"":702362},{""event"":""focus"",""trial"":7,""time"":702362},{""event"":""blur"",""trial"":7,""time"":707606},{""event"":""blur"",""trial"":7,""time"":707606},{""event"":""focus"",""trial"":7,""time"":708464},{""event"":""focus"",""trial"":7,""time"":708464},{""event"":""blur"",""trial"":7,""time"":835606},{""event"":""blur"",""trial"":7,""time"":835606},{""event"":""focus"",""trial"":7,""time"":1773537},{""event"":""focus"",""trial"":7,""time"":1773539},{""event"":""blur"",""trial"":8,""time"":1775584},{""event"":""blur"",""trial"":8,""time"":1775584},{""event"":""focus"",""trial"":8,""time"":1776456},{""event"":""focus"",""trial"":8,""time"":1776456}]",1440,900,NA,5,5,4,10,15,1,9,"Econo Consulting Group","Y","N","Y","Y",20632,"Slightly oppose","Slightly oppose","Somewhat oppose","Slightly oppose","Slightly oppose","Neutral","Slightly oppose","Slightly oppose","Neutral","Neutral","Neutral","Slightly favor","Neutral","Somewhat favor","White","28","0","Liberal","Four year college degree","Full-time","f","NULL","$30,000 to $39,999","6","Widowed","Liberal","","1",1
"67",79354,"survey-html-form",4,118297,"0.0-3.0-0.1","55mn9jawp8jczg0","Chrome",97,TRUE,"[{""event"":""blur"",""trial"":5,""time"":253197},{""event"":""blur"",""trial"":5,""time"":253198},{""event"":""focus"",""trial"":5,""time"":488144},{""event"":""focus"",""trial"":5,""time"":488144},{""event"":""blur"",""trial"":6,""time"":491350},{""event"":""blur"",""trial"":6,""time"":491350},{""event"":""focus"",""trial"":6,""time"":687901},{""event"":""focus"",""trial"":6,""time"":687902},{""event"":""blur"",""trial"":7,""time"":695183},{""event"":""blur"",""trial"":7,""time"":695184},{""event"":""focus"",""trial"":7,""time"":702362},{""event"":""focus"",""trial"":7,""time"":702362},{""event"":""blur"",""trial"":7,""time"":707606},{""event"":""blur"",""trial"":7,""time"":707606},{""event"":""focus"",""trial"":7,""time"":708464},{""event"":""focus"",""trial"":7,""time"":708464},{""event"":""blur"",""trial"":7,""time"":835606},{""event"":""blur"",""trial"":7,""time"":835606},{""event"":""focus"",""trial"":7,""time"":1773537},{""event"":""focus"",""trial"":7,""time"":1773539},{""event"":""blur"",""trial"":8,""time"":1775584},{""event"":""blur"",""trial"":8,""time"":1775584},{""event"":""focus"",""trial"":8,""time"":1776456},{""event"":""focus"",""trial"":8,""time"":1776456}]",1440,900,NA,4,4,3,8,17,5,5,"Bloom Advising","N","Y","N","N",20632,"Slightly oppose","Slightly oppose","Somewhat oppose","Slightly oppose","Slightly oppose","Neutral","Slightly oppose","Slightly oppose","Neutral","Neutral","Neutral","Slightly favor","Neutral","Somewhat favor","White","28","0","Liberal","Four year college degree","Full-time","f","NULL","$30,000 to $39,999","6","Widowed","Liberal","","1",1
"68",371915,"survey-html-form",5,490239,"0.0-3.0-0.2","55mn9jawp8jczg0","Chrome",97,TRUE,"[{""event"":""blur"",""trial"":5,""time"":253197},{""event"":""blur"",""trial"":5,""time"":253198},{""event"":""focus"",""trial"":5,""time"":488144},{""event"":""focus"",""trial"":5,""time"":488144},{""event"":""blur"",""trial"":6,""time"":491350},{""event"":""blur"",""trial"":6,""time"":491350},{""event"":""focus"",""trial"":6,""time"":687901},{""event"":""focus"",""trial"":6,""time"":687902},{""event"":""blur"",""trial"":7,""time"":695183},{""event"":""blur"",""trial"":7,""time"":695184},{""event"":""focus"",""trial"":7,""time"":702362},{""event"":""focus"",""trial"":7,""time"":702362},{""event"":""blur"",""trial"":7,""time"":707606},{""event"":""blur"",""trial"":7,""time"":707606},{""event"":""focus"",""trial"":7,""time"":708464},{""event"":""focus"",""trial"":7,""time"":708464},{""event"":""blur"",""trial"":7,""time"":835606},{""event"":""blur"",""trial"":7,""time"":835606},{""event"":""focus"",""trial"":7,""time"":1773537},{""event"":""focus"",""trial"":7,""time"":1773539},{""event"":""blur"",""trial"":8,""time"":1775584},{""event"":""blur"",""trial"":8,""time"":1775584},{""event"":""focus"",""trial"":8,""time"":1776456},{""event"":""focus"",""trial"":8,""time"":1776456}]",1440,900,NA,1,1,4,2,23,1,9,"Square and Company","Y","Y","Y","Y",20632,"Slightly oppose","Slightly oppose","Somewhat oppose","Slightly oppose","Slightly oppose","Neutral","Slightly oppose","Slightly oppose","Neutral","Neutral","Neutral","Slightly favor","Neutral","Somewhat favor","White","28","0","Liberal","Four year college degree","Full-time","f","NULL","$30,000 to $39,999","6","Widowed","Liberal","","1",1
"69",202664,"survey-html-form",6,692926,"0.0-3.0-0.3","55mn9jawp8jczg0","Chrome",97,TRUE,"[{""event"":""blur"",""trial"":5,""time"":253197},{""event"":""blur"",""trial"":5,""time"":253198},{""event"":""focus"",""trial"":5,""time"":488144},{""event"":""focus"",""trial"":5,""time"":488144},{""event"":""blur"",""trial"":6,""time"":491350},{""event"":""blur"",""trial"":6,""time"":491350},{""event"":""focus"",""trial"":6,""time"":687901},{""event"":""focus"",""trial"":6,""time"":687902},{""event"":""blur"",""trial"":7,""time"":695183},{""event"":""blur"",""trial"":7,""time"":695184},{""event"":""focus"",""trial"":7,""time"":702362},{""event"":""focus"",""trial"":7,""time"":702362},{""event"":""blur"",""trial"":7,""time"":707606},{""event"":""blur"",""trial"":7,""time"":707606},{""event"":""focus"",""trial"":7,""time"":708464},{""event"":""focus"",""trial"":7,""time"":708464},{""event"":""blur"",""trial"":7,""time"":835606},{""event"":""blur"",""trial"":7,""time"":835606},{""event"":""focus"",""trial"":7,""time"":1773537},{""event"":""focus"",""trial"":7,""time"":1773539},{""event"":""blur"",""trial"":8,""time"":1775584},{""event"":""blur"",""trial"":8,""time"":1775584},{""event"":""focus"",""trial"":8,""time"":1776456},{""event"":""focus"",""trial"":8,""time"":1776456}]",1440,900,NA,3,3,5,6,19,6,4,"Advice Alliance","Y","Y","Y","Y",20632,"Slightly oppose","Slightly oppose","Somewhat oppose","Slightly oppose","Slightly oppose","Neutral","Slightly oppose","Slightly oppose","Neutral","Neutral","Neutral","Slightly favor","Neutral","Somewhat favor","White","28","0","Liberal","Four year college degree","Full-time","f","NULL","$30,000 to $39,999","6","Widowed","Liberal","","1",1
"70",1081729,"survey-html-form",7,1774721,"0.0-3.0-0.4","55mn9jawp8jczg0","Chrome",97,TRUE,"[{""event"":""blur"",""trial"":5,""time"":253197},{""event"":""blur"",""trial"":5,""time"":253198},{""event"":""focus"",""trial"":5,""time"":488144},{""event"":""focus"",""trial"":5,""time"":488144},{""event"":""blur"",""trial"":6,""time"":491350},{""event"":""blur"",""trial"":6,""time"":491350},{""event"":""focus"",""trial"":6,""time"":687901},{""event"":""focus"",""trial"":6,""time"":687902},{""event"":""blur"",""trial"":7,""time"":695183},{""event"":""blur"",""trial"":7,""time"":695184},{""event"":""focus"",""trial"":7,""time"":702362},{""event"":""focus"",""trial"":7,""time"":702362},{""event"":""blur"",""trial"":7,""time"":707606},{""event"":""blur"",""trial"":7,""time"":707606},{""event"":""focus"",""trial"":7,""time"":708464},{""event"":""focus"",""trial"":7,""time"":708464},{""event"":""blur"",""trial"":7,""time"":835606},{""event"":""blur"",""trial"":7,""time"":835606},{""event"":""focus"",""trial"":7,""time"":1773537},{""event"":""focus"",""trial"":7,""time"":1773539},{""event"":""blur"",""trial"":8,""time"":1775584},{""event"":""blur"",""trial"":8,""time"":1775584},{""event"":""focus"",""trial"":8,""time"":1776456},{""event"":""focus"",""trial"":8,""time"":1776456}]",1440,900,NA,2,2,3,4,21,0,10,"GrowthSense","N","N","N","N",20632,"Slightly oppose","Slightly oppose","Somewhat oppose","Slightly oppose","Slightly oppose","Neutral","Slightly oppose","Slightly oppose","Neutral","Neutral","Neutral","Slightly favor","Neutral","Somewhat favor","White","28","0","Liberal","Four year college degree","Full-time","f","NULL","$30,000 to $39,999","6","Widowed","Liberal","","1",1
"71",63712,"survey-html-form",3,96909,"0.0-3.0-0.0","60a8unrz4staavq","Firefox",102,TRUE,"[{""event"":""blur"",""trial"":1,""time"":8064},{""event"":""blur"",""trial"":1,""time"":8064},{""event"":""focus"",""trial"":1,""time"":12604},{""event"":""focus"",""trial"":1,""time"":12604},{""event"":""blur"",""trial"":4,""time"":116977},{""event"":""blur"",""trial"":4,""time"":116977},{""event"":""focus"",""trial"":4,""time"":194687},{""event"":""focus"",""trial"":4,""time"":194687},{""event"":""blur"",""trial"":6,""time"":287707},{""event"":""blur"",""trial"":6,""time"":287708},{""event"":""focus"",""trial"":6,""time"":289978},{""event"":""focus"",""trial"":6,""time"":289978}]",1440,900,NA,1,1,6,2,23,1,9,"GrowthSense","Y","Y","N","N",59907,"Strongly favor","Somewhat favor","Somewhat oppose","Strongly oppose","Strongly favor","Strongly favor","Strongly oppose","Strongly oppose","Somewhat oppose","Somewhat oppose","Somewhat oppose","Somewhat oppose","Somewhat oppose","Slightly oppose","Asian","29","0","Conservative","Graduate degree","Full-time","f","NULL","$70,000 to $79,999","6","Widowed","Conservative","","1",1
"72",117473,"survey-html-form",4,214394,"0.0-3.0-0.1","60a8unrz4staavq","Firefox",102,TRUE,"[{""event"":""blur"",""trial"":1,""time"":8064},{""event"":""blur"",""trial"":1,""time"":8064},{""event"":""focus"",""trial"":1,""time"":12604},{""event"":""focus"",""trial"":1,""time"":12604},{""event"":""blur"",""trial"":4,""time"":116977},{""event"":""blur"",""trial"":4,""time"":116977},{""event"":""focus"",""trial"":4,""time"":194687},{""event"":""focus"",""trial"":4,""time"":194687},{""event"":""blur"",""trial"":6,""time"":287707},{""event"":""blur"",""trial"":6,""time"":287708},{""event"":""focus"",""trial"":6,""time"":289978},{""event"":""focus"",""trial"":6,""time"":289978}]",1440,900,NA,2,2,3,4,21,1,9,"Square and Company","Y","Y","N","Y",59907,"Strongly favor","Somewhat favor","Somewhat oppose","Strongly oppose","Strongly favor","Strongly favor","Strongly oppose","Strongly oppose","Somewhat oppose","Somewhat oppose","Somewhat oppose","Somewhat oppose","Somewhat oppose","Slightly oppose","Asian","29","0","Conservative","Graduate degree","Full-time","f","NULL","$70,000 to $79,999","6","Widowed","Conservative","","1",1
"73",52693,"survey-html-form",5,267149,"0.0-3.0-0.2","60a8unrz4staavq","Firefox",102,TRUE,"[{""event"":""blur"",""trial"":1,""time"":8064},{""event"":""blur"",""trial"":1,""time"":8064},{""event"":""focus"",""trial"":1,""time"":12604},{""event"":""focus"",""trial"":1,""time"":12604},{""event"":""blur"",""trial"":4,""time"":116977},{""event"":""blur"",""trial"":4,""time"":116977},{""event"":""focus"",""trial"":4,""time"":194687},{""event"":""focus"",""trial"":4,""time"":194687},{""event"":""blur"",""trial"":6,""time"":287707},{""event"":""blur"",""trial"":6,""time"":287708},{""event"":""focus"",""trial"":6,""time"":289978},{""event"":""focus"",""trial"":6,""time"":289978}]",1440,900,NA,4,4,2,8,17,3,7,"Bloom Advising","N","N","N","N",59907,"Strongly favor","Somewhat favor","Somewhat oppose","Strongly oppose","Strongly favor","Strongly favor","Strongly oppose","Strongly oppose","Somewhat oppose","Somewhat oppose","Somewhat oppose","Somewhat oppose","Somewhat oppose","Slightly oppose","Asian","29","0","Conservative","Graduate degree","Full-time","f","NULL","$70,000 to $79,999","6","Widowed","Conservative","","1",1
"74",30719,"survey-html-form",6,297881,"0.0-3.0-0.3","60a8unrz4staavq","Firefox",102,TRUE,"[{""event"":""blur"",""trial"":1,""time"":8064},{""event"":""blur"",""trial"":1,""time"":8064},{""event"":""focus"",""trial"":1,""time"":12604},{""event"":""focus"",""trial"":1,""time"":12604},{""event"":""blur"",""trial"":4,""time"":116977},{""event"":""blur"",""trial"":4,""time"":116977},{""event"":""focus"",""trial"":4,""time"":194687},{""event"":""focus"",""trial"":4,""time"":194687},{""event"":""blur"",""trial"":6,""time"":287707},{""event"":""blur"",""trial"":6,""time"":287708},{""event"":""focus"",""trial"":6,""time"":289978},{""event"":""focus"",""trial"":6,""time"":289978}]",1440,900,NA,5,5,4,10,15,5,5,"Econo Consulting Group","Y","Y","Y","Y",59907,"Strongly favor","Somewhat favor","Somewhat oppose","Strongly oppose","Strongly favor","Strongly favor","Strongly oppose","Strongly oppose","Somewhat oppose","Somewhat oppose","Somewhat oppose","Somewhat oppose","Somewhat oppose","Slightly oppose","Asian","29","0","Conservative","Graduate degree","Full-time","f","NULL","$70,000 to $79,999","6","Widowed","Conservative","","1",1
"75",41270,"survey-html-form",7,339166,"0.0-3.0-0.4","60a8unrz4staavq","Firefox",102,TRUE,"[{""event"":""blur"",""trial"":1,""time"":8064},{""event"":""blur"",""trial"":1,""time"":8064},{""event"":""focus"",""trial"":1,""time"":12604},{""event"":""focus"",""trial"":1,""time"":12604},{""event"":""blur"",""trial"":4,""time"":116977},{""event"":""blur"",""trial"":4,""time"":116977},{""event"":""focus"",""trial"":4,""time"":194687},{""event"":""focus"",""trial"":4,""time"":194687},{""event"":""blur"",""trial"":6,""time"":287707},{""event"":""blur"",""trial"":6,""time"":287708},{""event"":""focus"",""trial"":6,""time"":289978},{""event"":""focus"",""trial"":6,""time"":289978}]",1440,900,NA,3,3,2,6,19,3,7,"Advice Alliance","N","Y","N","N",59907,"Strongly favor","Somewhat favor","Somewhat oppose","Strongly oppose","Strongly favor","Strongly favor","Strongly oppose","Strongly oppose","Somewhat oppose","Somewhat oppose","Somewhat oppose","Somewhat oppose","Somewhat oppose","Slightly oppose","Asian","29","0","Conservative","Graduate degree","Full-time","f","NULL","$70,000 to $79,999","6","Widowed","Conservative","","1",1
"76",35256,"survey-html-form",3,73763,"0.0-3.0-0.0","66nvcqkg78tyhh1","Chrome",103,TRUE,"[{""event"":""blur"",""trial"":0,""time"":454},{""event"":""blur"",""trial"":0,""time"":454},{""event"":""focus"",""trial"":0,""time"":10928},{""event"":""focus"",""trial"":0,""time"":10928},{""event"":""blur"",""trial"":2,""time"":21674},{""event"":""blur"",""trial"":2,""time"":21674},{""event"":""focus"",""trial"":2,""time"":32531},{""event"":""focus"",""trial"":2,""time"":32531},{""event"":""blur"",""trial"":4,""time"":94577},{""event"":""blur"",""trial"":4,""time"":94577},{""event"":""focus"",""trial"":4,""time"":96538},{""event"":""focus"",""trial"":4,""time"":96538},{""event"":""blur"",""trial"":4,""time"":96540},{""event"":""blur"",""trial"":4,""time"":96540},{""event"":""focus"",""trial"":4,""time"":99253},{""event"":""focus"",""trial"":4,""time"":99253},{""event"":""blur"",""trial"":5,""time"":138028},{""event"":""blur"",""trial"":5,""time"":138028},{""event"":""focus"",""trial"":5,""time"":149162},{""event"":""focus"",""trial"":5,""time"":149162},{""event"":""blur"",""trial"":8,""time"":215388},{""event"":""blur"",""trial"":8,""time"":215388},{""event"":""focus"",""trial"":8,""time"":217438},{""event"":""focus"",""trial"":8,""time"":217438}]",1920,1080,NA,3,3,4,6,19,1,9,"Econo Consulting Group","Y","Y","Y","Y",39341,"Strongly oppose","Somewhat oppose","Neutral","Slightly favor","Strongly oppose","Strongly oppose","Somewhat favor","Strongly oppose","Somewhat oppose","Somewhat favor","Slightly oppose","Slightly favor","Slightly favor","Somewhat favor","Asian","26","0","Very conservative","Four year college degree","Full-time","m","NULL","$50,000 to $59,999","7","Widowed","Liberal","","1",1
"77",33661,"survey-html-form",4,107428,"0.0-3.0-0.1","66nvcqkg78tyhh1","Chrome",103,TRUE,"[{""event"":""blur"",""trial"":0,""time"":454},{""event"":""blur"",""trial"":0,""time"":454},{""event"":""focus"",""trial"":0,""time"":10928},{""event"":""focus"",""trial"":0,""time"":10928},{""event"":""blur"",""trial"":2,""time"":21674},{""event"":""blur"",""trial"":2,""time"":21674},{""event"":""focus"",""trial"":2,""time"":32531},{""event"":""focus"",""trial"":2,""time"":32531},{""event"":""blur"",""trial"":4,""time"":94577},{""event"":""blur"",""trial"":4,""time"":94577},{""event"":""focus"",""trial"":4,""time"":96538},{""event"":""focus"",""trial"":4,""time"":96538},{""event"":""blur"",""trial"":4,""time"":96540},{""event"":""blur"",""trial"":4,""time"":96540},{""event"":""focus"",""trial"":4,""time"":99253},{""event"":""focus"",""trial"":4,""time"":99253},{""event"":""blur"",""trial"":5,""time"":138028},{""event"":""blur"",""trial"":5,""time"":138028},{""event"":""focus"",""trial"":5,""time"":149162},{""event"":""focus"",""trial"":5,""time"":149162},{""event"":""blur"",""trial"":8,""time"":215388},{""event"":""blur"",""trial"":8,""time"":215388},{""event"":""focus"",""trial"":8,""time"":217438},{""event"":""focus"",""trial"":8,""time"":217438}]",1920,1080,NA,4,4,4,8,17,7,3,"GrowthSense","Y","Y","N","Y",39341,"Strongly oppose","Somewhat oppose","Neutral","Slightly favor","Strongly oppose","Strongly oppose","Somewhat favor","Strongly oppose","Somewhat oppose","Somewhat favor","Slightly oppose","Slightly favor","Slightly favor","Somewhat favor","Asian","26","0","Very conservative","Four year college degree","Full-time","m","NULL","$50,000 to $59,999","7","Widowed","Liberal","","1",1
"78",41852,"survey-html-form",5,149283,"0.0-3.0-0.2","66nvcqkg78tyhh1","Chrome",103,TRUE,"[{""event"":""blur"",""trial"":0,""time"":454},{""event"":""blur"",""trial"":0,""time"":454},{""event"":""focus"",""trial"":0,""time"":10928},{""event"":""focus"",""trial"":0,""time"":10928},{""event"":""blur"",""trial"":2,""time"":21674},{""event"":""blur"",""trial"":2,""time"":21674},{""event"":""focus"",""trial"":2,""time"":32531},{""event"":""focus"",""trial"":2,""time"":32531},{""event"":""blur"",""trial"":4,""time"":94577},{""event"":""blur"",""trial"":4,""time"":94577},{""event"":""focus"",""trial"":4,""time"":96538},{""event"":""focus"",""trial"":4,""time"":96538},{""event"":""blur"",""trial"":4,""time"":96540},{""event"":""blur"",""trial"":4,""time"":96540},{""event"":""focus"",""trial"":4,""time"":99253},{""event"":""focus"",""trial"":4,""time"":99253},{""event"":""blur"",""trial"":5,""time"":138028},{""event"":""blur"",""trial"":5,""time"":138028},{""event"":""focus"",""trial"":5,""time"":149162},{""event"":""focus"",""trial"":5,""time"":149162},{""event"":""blur"",""trial"":8,""time"":215388},{""event"":""blur"",""trial"":8,""time"":215388},{""event"":""focus"",""trial"":8,""time"":217438},{""event"":""focus"",""trial"":8,""time"":217438}]",1920,1080,NA,5,5,6,10,15,1,9,"Square and Company","Y","N","N","Y",39341,"Strongly oppose","Somewhat oppose","Neutral","Slightly favor","Strongly oppose","Strongly oppose","Somewhat favor","Strongly oppose","Somewhat oppose","Somewhat favor","Slightly oppose","Slightly favor","Slightly favor","Somewhat favor","Asian","26","0","Very conservative","Four year college degree","Full-time","m","NULL","$50,000 to $59,999","7","Widowed","Liberal","","1",1
"79",34215,"survey-html-form",6,183500,"0.0-3.0-0.3","66nvcqkg78tyhh1","Chrome",103,TRUE,"[{""event"":""blur"",""trial"":0,""time"":454},{""event"":""blur"",""trial"":0,""time"":454},{""event"":""focus"",""trial"":0,""time"":10928},{""event"":""focus"",""trial"":0,""time"":10928},{""event"":""blur"",""trial"":2,""time"":21674},{""event"":""blur"",""trial"":2,""time"":21674},{""event"":""focus"",""trial"":2,""time"":32531},{""event"":""focus"",""trial"":2,""time"":32531},{""event"":""blur"",""trial"":4,""time"":94577},{""event"":""blur"",""trial"":4,""time"":94577},{""event"":""focus"",""trial"":4,""time"":96538},{""event"":""focus"",""trial"":4,""time"":96538},{""event"":""blur"",""trial"":4,""time"":96540},{""event"":""blur"",""trial"":4,""time"":96540},{""event"":""focus"",""trial"":4,""time"":99253},{""event"":""focus"",""trial"":4,""time"":99253},{""event"":""blur"",""trial"":5,""time"":138028},{""event"":""blur"",""trial"":5,""time"":138028},{""event"":""focus"",""trial"":5,""time"":149162},{""event"":""focus"",""trial"":5,""time"":149162},{""event"":""blur"",""trial"":8,""time"":215388},{""event"":""blur"",""trial"":8,""time"":215388},{""event"":""focus"",""trial"":8,""time"":217438},{""event"":""focus"",""trial"":8,""time"":217438}]",1920,1080,NA,1,1,6,2,23,2,8,"Bloom Advising","Y","Y","Y","Y",39341,"Strongly oppose","Somewhat oppose","Neutral","Slightly favor","Strongly oppose","Strongly oppose","Somewhat favor","Strongly oppose","Somewhat oppose","Somewhat favor","Slightly oppose","Slightly favor","Slightly favor","Somewhat favor","Asian","26","0","Very conservative","Four year college degree","Full-time","m","NULL","$50,000 to $59,999","7","Widowed","Liberal","","1",1
"80",30437,"survey-html-form",7,213941,"0.0-3.0-0.4","66nvcqkg78tyhh1","Chrome",103,TRUE,"[{""event"":""blur"",""trial"":0,""time"":454},{""event"":""blur"",""trial"":0,""time"":454},{""event"":""focus"",""trial"":0,""time"":10928},{""event"":""focus"",""trial"":0,""time"":10928},{""event"":""blur"",""trial"":2,""time"":21674},{""event"":""blur"",""trial"":2,""time"":21674},{""event"":""focus"",""trial"":2,""time"":32531},{""event"":""focus"",""trial"":2,""time"":32531},{""event"":""blur"",""trial"":4,""time"":94577},{""event"":""blur"",""trial"":4,""time"":94577},{""event"":""focus"",""trial"":4,""time"":96538},{""event"":""focus"",""trial"":4,""time"":96538},{""event"":""blur"",""trial"":4,""time"":96540},{""event"":""blur"",""trial"":4,""time"":96540},{""event"":""focus"",""trial"":4,""time"":99253},{""event"":""focus"",""trial"":4,""time"":99253},{""event"":""blur"",""trial"":5,""time"":138028},{""event"":""blur"",""trial"":5,""time"":138028},{""event"":""focus"",""trial"":5,""time"":149162},{""event"":""focus"",""trial"":5,""time"":149162},{""event"":""blur"",""trial"":8,""time"":215388},{""event"":""blur"",""trial"":8,""time"":215388},{""event"":""focus"",""trial"":8,""time"":217438},{""event"":""focus"",""trial"":8,""time"":217438}]",1920,1080,NA,2,2,5,4,21,3,7,"Advice Alliance","Y","Y","Y","Y",39341,"Strongly oppose","Somewhat oppose","Neutral","Slightly favor","Strongly oppose","Strongly oppose","Somewhat favor","Strongly oppose","Somewhat oppose","Somewhat favor","Slightly oppose","Slightly favor","Slightly favor","Somewhat favor","Asian","26","0","Very conservative","Four year college degree","Full-time","m","NULL","$50,000 to $59,999","7","Widowed","Liberal","","1",1
"81",41732,"survey-html-form",3,51567,"0.0-3.0-0.0","6mfptongz6y62ty","Chrome",103,TRUE,"[{""event"":""blur"",""trial"":1,""time"":5964},{""event"":""blur"",""trial"":1,""time"":5964},{""event"":""focus"",""trial"":1,""time"":7211},{""event"":""focus"",""trial"":1,""time"":7211},{""event"":""blur"",""trial"":6,""time"":132132},{""event"":""blur"",""trial"":6,""time"":132132},{""event"":""focus"",""trial"":6,""time"":145560},{""event"":""focus"",""trial"":6,""time"":145560},{""event"":""blur"",""trial"":7,""time"":165187},{""event"":""blur"",""trial"":7,""time"":165187},{""event"":""focus"",""trial"":7,""time"":193527},{""event"":""focus"",""trial"":7,""time"":193527}]",2048,1152,NA,5,5,1,10,15,2,8,"Bloom Advising","Y","Y","N","Y",52213,"Slightly oppose","Slightly oppose","Slightly favor","Somewhat favor","Somewhat oppose","Somewhat oppose","Slightly oppose","Strongly oppose","Slightly oppose","Slightly oppose","Slightly favor","Slightly oppose","Slightly oppose","Slightly oppose","Asian","30","0","Liberal","Four year college degree","Full-time","m","NULL","$50,000 to $59,999","6","Divorced","Liberal","","1",1
"82",30443,"survey-html-form",4,82013,"0.0-3.0-0.1","6mfptongz6y62ty","Chrome",103,TRUE,"[{""event"":""blur"",""trial"":1,""time"":5964},{""event"":""blur"",""trial"":1,""time"":5964},{""event"":""focus"",""trial"":1,""time"":7211},{""event"":""focus"",""trial"":1,""time"":7211},{""event"":""blur"",""trial"":6,""time"":132132},{""event"":""blur"",""trial"":6,""time"":132132},{""event"":""focus"",""trial"":6,""time"":145560},{""event"":""focus"",""trial"":6,""time"":145560},{""event"":""blur"",""trial"":7,""time"":165187},{""event"":""blur"",""trial"":7,""time"":165187},{""event"":""focus"",""trial"":7,""time"":193527},{""event"":""focus"",""trial"":7,""time"":193527}]",2048,1152,NA,1,1,6,2,23,0,10,"Square and Company","Y","Y","Y","Y",52213,"Slightly oppose","Slightly oppose","Slightly favor","Somewhat favor","Somewhat oppose","Somewhat oppose","Slightly oppose","Strongly oppose","Slightly oppose","Slightly oppose","Slightly favor","Slightly oppose","Slightly oppose","Slightly oppose","Asian","30","0","Liberal","Four year college degree","Full-time","m","NULL","$50,000 to $59,999","6","Divorced","Liberal","","1",1
"83",30431,"survey-html-form",5,112446,"0.0-3.0-0.2","6mfptongz6y62ty","Chrome",103,TRUE,"[{""event"":""blur"",""trial"":1,""time"":5964},{""event"":""blur"",""trial"":1,""time"":5964},{""event"":""focus"",""trial"":1,""time"":7211},{""event"":""focus"",""trial"":1,""time"":7211},{""event"":""blur"",""trial"":6,""time"":132132},{""event"":""blur"",""trial"":6,""time"":132132},{""event"":""focus"",""trial"":6,""time"":145560},{""event"":""focus"",""trial"":6,""time"":145560},{""event"":""blur"",""trial"":7,""time"":165187},{""event"":""blur"",""trial"":7,""time"":165187},{""event"":""focus"",""trial"":7,""time"":193527},{""event"":""focus"",""trial"":7,""time"":193527}]",2048,1152,NA,2,2,3,4,21,1,9,"Econo Consulting Group","Y","Y","Y","Y",52213,"Slightly oppose","Slightly oppose","Slightly favor","Somewhat favor","Somewhat oppose","Somewhat oppose","Slightly oppose","Strongly oppose","Slightly oppose","Slightly oppose","Slightly favor","Slightly oppose","Slightly oppose","Slightly oppose","Asian","30","0","Liberal","Four year college degree","Full-time","m","NULL","$50,000 to $59,999","6","Divorced","Liberal","","1",1
"84",35019,"survey-html-form",6,147467,"0.0-3.0-0.3","6mfptongz6y62ty","Chrome",103,TRUE,"[{""event"":""blur"",""trial"":1,""time"":5964},{""event"":""blur"",""trial"":1,""time"":5964},{""event"":""focus"",""trial"":1,""time"":7211},{""event"":""focus"",""trial"":1,""time"":7211},{""event"":""blur"",""trial"":6,""time"":132132},{""event"":""blur"",""trial"":6,""time"":132132},{""event"":""focus"",""trial"":6,""time"":145560},{""event"":""focus"",""trial"":6,""time"":145560},{""event"":""blur"",""trial"":7,""time"":165187},{""event"":""blur"",""trial"":7,""time"":165187},{""event"":""focus"",""trial"":7,""time"":193527},{""event"":""focus"",""trial"":7,""time"":193527}]",2048,1152,NA,3,3,1,6,19,3,7,"GrowthSense","Y","Y","N","N",52213,"Slightly oppose","Slightly oppose","Slightly favor","Somewhat favor","Somewhat oppose","Somewhat oppose","Slightly oppose","Strongly oppose","Slightly oppose","Slightly oppose","Slightly favor","Slightly oppose","Slightly oppose","Slightly oppose","Asian","30","0","Liberal","Four year college degree","Full-time","m","NULL","$50,000 to $59,999","6","Divorced","Liberal","","1",1
"85",47268,"survey-html-form",7,194737,"0.0-3.0-0.4","6mfptongz6y62ty","Chrome",103,TRUE,"[{""event"":""blur"",""trial"":1,""time"":5964},{""event"":""blur"",""trial"":1,""time"":5964},{""event"":""focus"",""trial"":1,""time"":7211},{""event"":""focus"",""trial"":1,""time"":7211},{""event"":""blur"",""trial"":6,""time"":132132},{""event"":""blur"",""trial"":6,""time"":132132},{""event"":""focus"",""trial"":6,""time"":145560},{""event"":""focus"",""trial"":6,""time"":145560},{""event"":""blur"",""trial"":7,""time"":165187},{""event"":""blur"",""trial"":7,""time"":165187},{""event"":""focus"",""trial"":7,""time"":193527},{""event"":""focus"",""trial"":7,""time"":193527}]",2048,1152,NA,4,4,1,8,17,5,5,"Advice Alliance","N","Y","N","Y",52213,"Slightly oppose","Slightly oppose","Slightly favor","Somewhat favor","Somewhat oppose","Somewhat oppose","Slightly oppose","Strongly oppose","Slightly oppose","Slightly oppose","Slightly favor","Slightly oppose","Slightly oppose","Slightly oppose","Asian","30","0","Liberal","Four year college degree","Full-time","m","NULL","$50,000 to $59,999","6","Divorced","Liberal","","1",1
"86",39671,"survey-html-form",3,79143,"0.0-3.0-0.0","6pbgpu969w1hxpp","Chrome",103,TRUE,"[{""event"":""blur"",""trial"":1,""time"":8090},{""event"":""blur"",""trial"":1,""time"":8090},{""event"":""focus"",""trial"":1,""time"":10127},{""event"":""focus"",""trial"":1,""time"":10127},{""event"":""blur"",""trial"":4,""time"":87680},{""event"":""blur"",""trial"":4,""time"":87680},{""event"":""focus"",""trial"":4,""time"":164775},{""event"":""focus"",""trial"":4,""time"":164775}]",1920,1080,NA,3,3,1,6,19,2,8,"Square and Company","N","N","N","N",32705,"Neutral","Slightly favor","Neutral","Neutral","Slightly favor","Neutral","Neutral","Neutral","Slightly oppose","Slightly oppose","Slightly oppose","Slightly oppose","Neutral","Slightly oppose","White","27","0","Slightly conservative","Two year college degree","Full-time","m","NULL","$10,000 to $19,999 ","3","Widowed","Slightly conservative","","1",1
"87",87583,"survey-html-form",4,166729,"0.0-3.0-0.1","6pbgpu969w1hxpp","Chrome",103,TRUE,"[{""event"":""blur"",""trial"":1,""time"":8090},{""event"":""blur"",""trial"":1,""time"":8090},{""event"":""focus"",""trial"":1,""time"":10127},{""event"":""focus"",""trial"":1,""time"":10127},{""event"":""blur"",""trial"":4,""time"":87680},{""event"":""blur"",""trial"":4,""time"":87680},{""event"":""focus"",""trial"":4,""time"":164775},{""event"":""focus"",""trial"":4,""time"":164775}]",1920,1080,NA,5,5,3,10,15,3,7,"Advice Alliance","N","N","N","N",32705,"Neutral","Slightly favor","Neutral","Neutral","Slightly favor","Neutral","Neutral","Neutral","Slightly oppose","Slightly oppose","Slightly oppose","Slightly oppose","Neutral","Slightly oppose","White","27","0","Slightly conservative","Two year college degree","Full-time","m","NULL","$10,000 to $19,999 ","3","Widowed","Slightly conservative","","1",1
"88",96452,"survey-html-form",5,263183,"0.0-3.0-0.2","6pbgpu969w1hxpp","Chrome",103,TRUE,"[{""event"":""blur"",""trial"":1,""time"":8090},{""event"":""blur"",""trial"":1,""time"":8090},{""event"":""focus"",""trial"":1,""time"":10127},{""event"":""focus"",""trial"":1,""time"":10127},{""event"":""blur"",""trial"":4,""time"":87680},{""event"":""blur"",""trial"":4,""time"":87680},{""event"":""focus"",""trial"":4,""time"":164775},{""event"":""focus"",""trial"":4,""time"":164775}]",1920,1080,NA,1,1,4,2,23,0,10,"Bloom Advising","N","N","N","N",32705,"Neutral","Slightly favor","Neutral","Neutral","Slightly favor","Neutral","Neutral","Neutral","Slightly oppose","Slightly oppose","Slightly oppose","Slightly oppose","Neutral","Slightly oppose","White","27","0","Slightly conservative","Two year college degree","Full-time","m","NULL","$10,000 to $19,999 ","3","Widowed","Slightly conservative","","1",1
"89",48778,"survey-html-form",6,311964,"0.0-3.0-0.3","6pbgpu969w1hxpp","Chrome",103,TRUE,"[{""event"":""blur"",""trial"":1,""time"":8090},{""event"":""blur"",""trial"":1,""time"":8090},{""event"":""focus"",""trial"":1,""time"":10127},{""event"":""focus"",""trial"":1,""time"":10127},{""event"":""blur"",""trial"":4,""time"":87680},{""event"":""blur"",""trial"":4,""time"":87680},{""event"":""focus"",""trial"":4,""time"":164775},{""event"":""focus"",""trial"":4,""time"":164775}]",1920,1080,NA,4,4,4,8,17,0,10,"Econo Consulting Group","N","N","N","N",32705,"Neutral","Slightly favor","Neutral","Neutral","Slightly favor","Neutral","Neutral","Neutral","Slightly oppose","Slightly oppose","Slightly oppose","Slightly oppose","Neutral","Slightly oppose","White","27","0","Slightly conservative","Two year college degree","Full-time","m","NULL","$10,000 to $19,999 ","3","Widowed","Slightly conservative","","1",1
"90",61098,"survey-html-form",7,373065,"0.0-3.0-0.4","6pbgpu969w1hxpp","Chrome",103,TRUE,"[{""event"":""blur"",""trial"":1,""time"":8090},{""event"":""blur"",""trial"":1,""time"":8090},{""event"":""focus"",""trial"":1,""time"":10127},{""event"":""focus"",""trial"":1,""time"":10127},{""event"":""blur"",""trial"":4,""time"":87680},{""event"":""blur"",""trial"":4,""time"":87680},{""event"":""focus"",""trial"":4,""time"":164775},{""event"":""focus"",""trial"":4,""time"":164775}]",1920,1080,NA,2,2,1,4,21,2,8,"GrowthSense","N","N","N","N",32705,"Neutral","Slightly favor","Neutral","Neutral","Slightly favor","Neutral","Neutral","Neutral","Slightly oppose","Slightly oppose","Slightly oppose","Slightly oppose","Neutral","Slightly oppose","White","27","0","Slightly conservative","Two year college degree","Full-time","m","NULL","$10,000 to $19,999 ","3","Widowed","Slightly conservative","","1",1
